timestamp_ms,ax,ay,az,gx,gy,gz,temp,pitch,roll
256,-0.1182,-0.8291,-0.5115,-4.9160,1.8015,-5.5802,48.20,6.92,-121.67
751,-0.1086,-0.7917,-0.5352,3.6565,0.4275,-2.2443,48.11,6.49,-124.06
1251,-0.1155,-0.8091,-0.5215,-8.7634,-0.1374,-2.3664,48.11,6.84,-122.80
1751,-0.1091,-0.7974,-0.5212,-2.3588,0.4733,-2.3359,48.15,6.54,-123.17
2251,-0.1206,-0.8147,-0.5210,-2.8702,0.7481,-1.2061,48.15,7.11,-122.60
2751,-0.1077,-0.7966,-0.5312,3.2366,2.4046,-0.1298,48.15,6.42,-123.70
3251,-0.1069,-0.8069,-0.5161,1.8168,1.8550,-1.1832,48.15,6.37,-122.60
3751,-0.1599,-0.7800,-0.5488,-3.9008,-6.1069,-1.9008,48.29,9.52,-125.13
256,0.7332,0.3315,-0.5466,-3.0229,3.8626,-0.4885,45.61,-48.91,148.76
751,0.7397,0.3276,-0.5312,-3.9924,-1.8626,-0.0382,45.57,-49.84,148.34
1251,0.7639,0.3479,-0.5430,5.3282,-5.3969,-4.2366,45.71,-49.83,147.35
1751,0.7588,0.2217,-0.4822,-19.5267,4.1298,22.1145,45.61,-55.03,155.31
2251,0.6199,0.5098,-0.5615,-13.4809,-5.5954,-43.9847,45.75,-39.26,137.77
2751,0.4429,0.6045,-0.4031,-7.7710,6.5038,-33.7252,45.61,-31.36,123.70
3251,0.3364,0.7229,-0.5369,20.1679,3.6870,32.0534,46.04,-20.49,126.60
3751,0.2607,0.8057,-0.5850,-47.5420,33.0992,-2.2824,45.75,-14.68,125.98
4251,0.2783,0.9492,-0.4360,10.8779,1.7939,3.0611,45.85,-14.92,114.67
4751,0.3640,0.7710,-0.4070,-17.6947,-0.9237,-13.4351,46.04,-22.66,117.83
5251,0.2422,0.7805,0.0203,-34.2366,25.8473,-12.0992,45.89,-17.23,88.51
5751,0.4387,0.8992,0.0500,-8.5420,4.3817,4.6412,46.08,-25.97,86.81
6251,0.4478,0.8835,0.0083,-0.0305,-2.9313,-1.2137,45.89,-26.87,89.46
6751,0.4116,0.9243,0.0107,1.9160,-3.2672,-4.7023,45.75,-24.00,89.33
7251,0.4058,0.9146,-0.0076,-3.6718,2.4885,-1.4733,46.08,-23.92,90.47
7751,0.4128,0.9094,-0.0020,-2.5954,0.9466,-0.2137,45.89,-24.42,90.12
8251,0.4028,0.9092,-0.0215,-0.5496,-0.7328,-2.0840,45.89,-23.89,91.35
8751,0.4248,0.9158,-0.0635,-0.8321,-0.1603,-1.8626,46.22,-24.83,93.97
9251,0.3916,0.9033,-0.0435,-2.1756,0.9924,-2.0763,45.94,-23.41,92.75
9751,0.3921,0.9099,-0.0435,-1.6718,0.1374,-1.3511,46.04,-23.29,92.73
10251,0.3821,0.9036,-0.0476,-1.8855,0.7939,-0.5802,46.04,-22.89,93.02
10751,0.3962,0.9272,-0.0559,-3.9313,4.7786,0.3359,46.08,-23.10,93.45
11251,0.3936,0.8999,-0.0483,-1.4885,0.1298,0.9237,46.13,-23.59,93.07
11751,0.4395,0.9014,-0.0154,4.9313,-8.6489,-2.8473,46.27,-25.99,90.98
265,-0.7410,-0.6624,-0.1519,-13.6412,2.0840,32.8855,48.72,47.48,-102.91
761,-0.8687,-0.1643,-0.2246,-2.0305,0.2443,-6.4809,48.72,72.24,-143.81
1261,-0.9438,-0.1057,-0.1843,-2.2366,0.7786,-0.4504,48.53,77.31,-150.17
1761,-0.9578,-0.1104,-0.1848,-2.7176,1.0458,-1.8321,48.62,77.33,-149.16
2261,-0.9775,-0.0867,-0.1628,-2.6260,0.6794,1.5420,48.95,79.31,-151.98
2761,-0.8894,-0.2363,-0.1809,-10.5191,8.8168,10.3282,48.81,71.50,-127.43
3261,-0.9692,-0.0632,-0.1560,-0.7710,-1.8244,-4.5878,48.72,80.15,-157.94
3761,-0.9385,-0.0754,-0.1638,-2.4122,0.8092,-0.3969,49.05,79.12,-155.27
4261,-0.9468,-0.0942,-0.1721,-2.5725,1.2290,-1.3969,49.00,78.29,-151.30
4761,-0.9524,-0.0974,-0.1692,-2.4733,1.1756,-1.5496,48.95,78.42,-150.07
5261,-0.9480,-0.0879,-0.1746,-2.4198,0.9084,-1.5115,48.81,78.35,-153.27
5761,-0.9490,-0.0884,-0.1765,-2.3740,0.8168,-0.8626,48.95,78.25,-153.40
254,-0.9517,-0.0847,-0.1790,-2.6336,0.6183,-0.1908,49.00,78.25,-154.67
741,-0.9346,-0.0601,-0.1831,-1.7786,1.1450,-3.7176,48.86,78.35,-161.84
1241,-0.9646,-0.1030,-0.1724,-2.9084,1.3740,-1.2061,49.00,78.24,-149.13
1741,-0.9558,-0.0708,-0.1885,-2.1221,0.9924,-1.9160,48.86,78.10,-159.41
2241,-0.9443,-0.0835,-0.1731,-2.5573,0.8015,-0.5573,48.81,78.50,-154.25
2741,-0.9482,-0.0837,-0.1790,-2.4809,1.2061,-1.2061,48.86,78.23,-154.92
3241,-0.9519,-0.0854,-0.1685,-2.6794,1.0458,-0.8473,49.19,78.78,-153.10
3741,-0.9551,-0.0830,-0.1726,-2.2901,1.3282,-0.6031,48.95,78.66,-154.32
4241,-0.9451,-0.0896,-0.1716,-2.2137,0.9771,-1.0076,48.95,78.42,-152.43
4741,-0.9697,-0.0713,-0.1770,-1.4580,0.3130,-1.6183,49.00,78.87,-158.06
5241,-0.9473,-0.0801,-0.1741,-2.4275,1.1374,-0.6489,48.95,78.56,-155.30
5741,-0.9551,-0.0830,-0.1648,-2.5649,0.7786,-1.3130,49.14,79.07,-153.27
6241,-0.9509,-0.0916,-0.1626,-2.8015,0.7099,-1.2519,49.00,78.90,-150.62
6741,-0.9626,-0.1033,-0.1753,-2.6641,2.7099,-2.1985,49.05,78.07,-149.50
7241,-0.9622,-0.0115,-0.2808,-22.7710,5.8092,1.9008,49.05,73.72,-177.66
7741,-0.9487,-0.0725,-0.1760,-3.3053,1.2595,2.1069,48.86,78.65,-157.61
8241,-0.9355,-0.0791,-0.1621,-2.7634,1.0916,-1.7939,48.95,79.09,-153.99
8741,-1.0066,-0.0645,-0.1755,-0.9008,-1.1221,-0.7023,49.14,79.48,-159.84
9241,-0.9475,-0.0686,-0.1692,-2.7405,0.7405,-0.0992,48.86,79.09,-157.93
9741,-0.9053,-0.0764,-0.1621,-2.0000,1.3053,-2.7786,49.00,78.80,-154.76
10241,-0.9568,-0.0667,-0.1777,-3.1374,1.9084,0.6260,48.72,78.78,-159.44
10741,-0.9546,-0.0911,-0.1580,-2.7863,1.3130,-0.1603,49.00,79.19,-150.04
11241,-0.9602,-0.0947,-0.1589,-2.1985,0.4427,-2.8779,48.86,79.09,-149.20
11741,-0.9417,-0.0691,-0.1670,-2.5573,1.6489,0.1527,48.81,79.14,-157.52
12241,-0.9448,-0.0835,-0.1704,-2.4275,1.2748,-0.4962,49.14,78.64,-153.90
12741,-0.9260,-0.0654,-0.1792,-1.4656,0.4427,-5.1069,49.05,78.36,-159.94
13241,-0.9492,-0.0793,-0.1638,-2.8702,1.5496,0.0000,48.95,79.14,-154.16
13741,-0.9609,-0.0725,-0.1792,-2.8855,0.7176,0.3282,49.00,78.63,-157.97
14241,-0.9504,-0.0791,-0.1560,-2.2901,0.9313,-0.3588,48.86,79.57,-153.11
14741,-0.9329,-0.0635,-0.1794,-2.9771,1.9084,-1.7023,49.05,78.47,-160.52
15241,-0.9634,-0.0852,-0.1648,-2.3893,-0.3588,-0.9008,49.14,79.10,-152.66
15741,-0.9624,-0.0649,-0.1521,-3.0305,1.3435,-2.5725,48.86,80.25,-156.88
16241,-0.9495,-0.1218,-0.0933,-2.3206,-1.3053,-3.8855,49.05,80.82,-127.44
16741,-0.9294,-0.0496,-0.1880,-3.3817,1.5496,-0.5267,48.81,78.19,-165.23
17241,-0.9497,-0.0732,-0.1628,-2.1832,0.6489,-2.5191,48.72,79.35,-155.78
17741,-0.9443,-0.0769,-0.1699,-2.3740,0.6412,-1.2595,48.72,78.83,-155.65
18241,-0.9639,-0.0735,-0.1914,-2.1985,-0.0229,-1.1450,49.19,77.99,-159.00
18741,-0.9517,-0.0754,-0.1558,-2.5038,1.4885,0.1527,48.95,79.69,-154.16
19241,-0.9534,-0.0840,-0.1819,-2.4580,1.4962,1.6641,48.81,78.13,-155.22
19741,-0.9417,-0.0696,-0.1624,-2.5191,1.3817,-3.0305,49.14,79.38,-156.80
20241,-0.9631,-0.0447,-0.1548,-2.3130,0.8626,-0.4275,48.86,80.50,-163.90
20741,-0.8967,-0.0908,-0.1687,1.2824,4.0687,-20.4733,49.00,77.94,-151.70
21241,-0.9175,-0.0771,-0.1790,-2.9237,0.6260,-0.1985,49.00,78.01,-156.68
21741,-0.9451,-0.0603,-0.1602,-2.3817,2.3206,-2.8779,48.86,79.74,-159.37
22241,-0.9575,-0.0540,-0.1577,-2.2214,0.6412,1.0458,49.14,80.12,-161.11
22741,-0.9580,-0.0720,-0.1653,-2.9924,0.9084,0.5802,48.86,79.34,-156.46
23241,-0.9336,-0.0706,-0.1714,-1.9084,1.6489,-3.3588,49.00,78.77,-157.62
23741,-0.9536,-0.0481,-0.1726,-2.4809,0.3740,-1.0534,48.95,79.36,-164.43
24241,-0.9509,-0.0693,-0.1731,-2.6641,1.7176,-0.8931,48.81,78.91,-158.17
24741,-0.9524,-0.0757,-0.1660,-2.1603,1.1603,-0.6870,49.14,79.16,-155.49
25241,-0.9497,-0.0598,-0.1619,-2.5191,0.9313,-1.0000,48.95,79.70,-159.72
25741,-0.9417,-0.0649,-0.1677,-2.5878,0.7557,-0.7405,49.05,79.19,-158.83
26241,-0.9478,-0.0596,-0.1655,-2.8397,1.6565,-1.5191,49.14,79.48,-160.21
26741,-0.9531,-0.0576,-0.1458,-2.6565,0.7252,-1.0076,49.14,80.66,-158.43
27241,-0.9385,-0.0601,-0.1721,-2.3435,1.5954,-0.7634,49.19,79.01,-160.76
27741,-0.9458,-0.0608,-0.1650,-2.1985,1.5344,-2.0534,48.95,79.47,-159.78
28241,-0.9158,-0.0759,-0.1733,-2.6336,1.6489,-2.3817,49.00,78.32,-156.35
28741,-0.9846,-0.0469,-0.1477,-2.6947,0.3206,1.2901,48.81,81.06,-162.39
29241,-0.9614,-0.0659,-0.1685,-2.5649,0.2672,0.6870,49.00,79.34,-158.63
29741,-0.9629,-0.0466,-0.1646,-2.0611,0.8779,-1.7099,49.24,79.93,-164.18
30241,-0.9751,-0.0762,-0.1428,-2.7939,0.4656,1.9160,48.95,80.57,-151.93
30741,-0.9766,-0.0818,-0.1697,-1.3817,1.5878,-4.1603,48.95,79.08,-154.27
31241,-0.8965,-0.0647,-0.1548,-2.7557,1.9924,1.0687,49.05,79.40,-157.32
31741,-0.9653,-0.0417,-0.1621,-3.8626,-0.0916,5.7863,49.14,80.16,-165.56
32241,-0.9148,-0.0850,-0.1670,-1.2290,2.6412,-10.1603,49.19,78.43,-153.03
32741,-0.9529,-0.0525,-0.1641,-3.2443,1.6336,-0.6565,48.86,79.75,-162.26
33241,-0.9475,-0.0730,-0.1631,-2.4885,0.8092,-1.2366,49.05,79.32,-155.89
33741,-0.9702,-0.0417,-0.1736,-3.2061,1.6336,-0.8092,49.00,79.57,-166.48
34241,-0.9492,-0.0684,-0.1582,-2.4504,1.4351,-1.5344,48.86,79.71,-156.63
34741,-0.9563,-0.0632,-0.1609,-2.2443,1.0153,-1.8702,49.14,79.75,-158.54
35241,-0.9263,-0.0452,-0.1323,-1.3893,3.2214,-3.2748,49.05,81.42,-161.15
35741,-0.9253,-0.0422,-0.1619,-2.1221,1.2672,0.1450,48.81,79.75,-165.38
36241,-0.9490,-0.0732,-0.1616,-1.7481,1.3130,-3.5191,49.00,79.41,-155.62
36741,-0.9565,-0.0652,-0.1719,-2.5649,2.2061,-3.4962,48.95,79.12,-159.23
37241,-0.8987,-0.1111,-0.1689,-4.2519,1.3588,2.4122,48.86,77.32,-146.67
37741,-0.9692,-0.0464,-0.1660,-1.7176,0.4962,-2.3511,48.86,79.92,-164.39
38241,-0.9917,-0.0471,-0.1458,-2.5267,0.8702,2.0611,48.95,81.22,-162.08
38741,-0.9253,-0.0845,-0.1812,-4.1985,1.7863,0.3893,48.95,77.81,-155.00
39241,-0.9802,-0.0620,-0.1772,-1.7863,0.7939,-5.8473,48.95,79.16,-160.72
39741,-0.9600,-0.0576,-0.1658,-2.5344,1.3893,1.1679,48.86,79.64,-160.83
40241,-0.9429,-0.0618,-0.0959,-1.2443,0.6260,3.6183,48.72,83.10,-147.23
40741,-0.9380,-0.0835,-0.1614,-2.2595,0.7405,-2.6947,49.14,79.04,-152.64
41241,-0.9458,-0.0425,-0.1765,-2.0076,1.4427,-2.9847,49.05,79.13,-166.47
41741,-0.9407,-0.0505,-0.1736,-3.1298,1.2901,-0.3359,49.05,79.12,-163.77
42241,-0.9561,-0.0654,-0.1284,-2.1527,1.4198,-3.2061,49.00,81.43,-153.00
42741,-0.9373,-0.0759,-0.1206,-2.0916,0.3511,1.2443,48.72,81.35,-147.81
43241,-0.9517,-0.0437,-0.1943,-1.5802,0.8015,-5.3511,48.95,78.18,-167.33
43741,-0.9658,-0.0593,-0.1565,-2.6336,1.1450,-0.4275,48.95,80.17,-159.24
44241,-0.9741,-0.0564,-0.1641,-2.8092,0.3969,2.0076,49.14,79.90,-161.03
44741,-0.9575,-0.0498,-0.1531,-3.0000,0.5267,1.9771,49.00,80.46,-161.98
45241,-0.9451,-0.0610,-0.1560,-1.5954,2.0076,-5.8855,49.19,79.95,-158.63
45741,-1.0154,-0.0420,-0.2073,-4.9237,-0.5344,5.4046,48.95,78.23,-168.55
46241,-0.9290,-0.0801,-0.1470,-1.5878,1.5496,-3.2519,48.95,79.79,-151.42
46741,-0.9707,-0.0537,-0.1606,-2.4885,1.2214,-1.1985,49.00,80.10,-161.51
47241,-0.9248,-0.0962,-0.1807,-2.4122,0.6336,-3.7252,48.86,77.52,-151.97
47741,-0.9189,-0.0566,-0.1663,-3.0458,3.0153,-0.7099,48.72,79.18,-161.19
48241,-0.9656,-0.0457,-0.1570,-3.1832,0.5420,1.0687,49.00,80.39,-163.78
48741,-0.9587,-0.0657,-0.1812,-3.7176,1.2519,1.3130,49.00,78.64,-160.07
49241,-0.9429,-0.0886,-0.1470,-1.7557,2.4046,-5.7176,48.72,79.68,-148.91
49741,-0.9624,-0.0464,-0.1594,-2.2519,1.1908,-1.2137,48.95,80.21,-163.78
50241,-0.9338,-0.0649,-0.1558,-2.1908,1.4885,-1.3740,48.72,79.76,-157.37
50741,-0.9844,-0.0754,-0.1575,-1.9389,-0.1374,-2.7252,48.95,79.94,-154.40
51241,-0.9365,-0.0544,-0.1765,-3.2214,0.6412,1.3664,48.81,78.84,-162.86
51741,-1.0007,-0.0334,-0.1624,-2.4962,1.1679,-2.5954,49.00,80.59,-168.36
52241,-0.9563,-0.0979,-0.1421,-2.3664,1.6870,-1.0687,48.72,79.77,-145.43
52741,-0.9768,-0.0623,-0.1604,-2.6489,-0.3511,1.2748,48.95,80.01,-158.79
53241,-0.9573,-0.0667,-0.1523,-1.9542,1.4427,-3.6107,48.86,80.15,-156.37
53741,-0.9871,-0.0535,-0.1719,-2.7786,0.5115,-1.2290,48.86,79.67,-162.72
54241,-0.9504,-0.0586,-0.1694,-2.0153,1.4733,-3.7405,49.19,79.32,-160.92
54741,-0.9512,-0.0635,-0.1584,-2.9084,0.3969,1.1756,48.81,79.83,-158.17
55241,-0.9441,-0.0691,-0.1572,-2.5878,1.0305,-0.7328,48.72,79.69,-156.28
55741,-0.9529,-0.0625,-0.1626,-2.4733,1.3206,-2.1221,48.95,79.64,-158.97
56241,-0.9636,-0.0393,-0.1589,-2.2824,1.3817,-1.6565,48.95,80.36,-166.11
56741,-0.9487,-0.0430,-0.1675,-3.1603,0.5344,-0.9847,49.05,79.67,-165.61
57241,-0.9460,-0.0735,-0.1570,-1.9847,1.4198,-3.5649,49.00,79.62,-154.91
57741,-0.9636,-0.0708,-0.1528,-2.4427,0.4809,0.2901,48.72,80.09,-155.14
58241,-0.9644,-0.0510,-0.1587,-2.6641,1.2443,-1.0305,48.67,80.19,-162.18
58741,-0.9639,-0.0740,-0.1653,-3.0305,1.2672,-0.1527,49.05,79.36,-155.89
59241,-0.6875,-0.4834,-0.5039,11.5267,-37.1603,54.4122,49.00,44.55,-136.19
59741,-0.9639,-0.0742,-0.1680,-2.5725,0.4809,-1.7099,49.05,79.21,-156.16
60241,-0.9600,-0.0430,-0.1626,-2.2748,0.9771,-2.2672,48.95,80.06,-165.20
60741,-0.9490,-0.0532,-0.1733,-2.4885,1.0305,-1.3588,48.81,79.18,-162.93
61241,-0.9351,-0.0215,-0.1829,-3.4351,2.3282,3.9542,49.19,78.86,-173.30
61741,-0.9521,-0.0676,-0.1499,-2.3206,1.1450,-1.8550,49.05,80.20,-155.72
62241,-0.9558,-0.0396,-0.1707,-2.5420,1.3817,-0.7710,48.95,79.61,-166.95
62741,-0.9556,-0.0574,-0.1614,-2.5878,1.1298,-0.6031,48.72,79.84,-160.43
63241,-0.9495,-0.0442,-0.1667,-2.2901,1.4427,-1.5954,49.00,79.70,-165.16
63741,-0.9604,-0.0378,-0.1619,-2.5573,1.2290,0.1832,48.86,80.18,-166.84
64241,-0.9504,-0.0576,-0.1582,-2.5191,0.9008,-0.9618,49.00,79.95,-159.99
64741,-0.9407,-0.0452,-0.1699,-2.6412,1.7252,-1.2672,48.95,79.41,-165.11
65241,-0.9512,-0.0601,-0.1553,-2.3206,0.8244,-3.3511,48.72,80.07,-158.85
65741,-0.9609,-0.0432,-0.1648,-2.7328,1.2595,-0.4351,48.95,79.95,-165.31
66241,-0.9504,-0.0542,-0.1670,-2.4885,0.5954,-0.8321,49.14,79.53,-162.02
66741,-0.9431,-0.0479,-0.1780,-2.2214,1.1298,-2.2443,48.86,78.94,-164.95
67241,-0.9597,-0.0557,-0.1614,-2.2672,0.6565,-1.0763,48.81,79.91,-160.97
67741,-0.9509,-0.0435,-0.1619,-2.1298,1.6794,-1.3893,48.95,80.00,-164.97
68241,-0.9387,-0.0491,-0.1475,-1.7939,1.0992,-2.6412,49.14,80.60,-161.59
68741,-0.9614,-0.0620,-0.1694,-1.6260,1.6031,-3.3053,49.05,79.37,-159.90
69241,-0.9641,-0.0493,-0.1731,-2.3511,-0.6412,-0.1756,49.00,79.43,-164.10
69741,-0.9570,-0.0564,-0.1670,-2.1527,1.1145,-1.6794,48.95,79.56,-161.34
70241,-0.9583,-0.0471,-0.1550,-2.8779,1.3664,-0.5878,48.86,80.40,-163.09
70741,-0.9458,-0.0554,-0.1572,-2.3282,0.8702,-1.7023,48.86,80.00,-160.58
71241,-0.9626,-0.0474,-0.1523,-2.4885,1.1679,-0.5267,48.72,80.59,-162.73
71741,-0.9514,-0.0493,-0.1709,-2.4122,1.4809,-0.6870,48.95,79.41,-163.90
72241,-0.9524,-0.0349,-0.1750,-2.6336,1.2290,-0.2595,49.00,79.38,-168.72
72741,-0.9490,-0.0513,-0.1382,-2.6565,1.5573,-0.5496,48.86,81.17,-159.64
73241,-0.9519,-0.0498,-0.1619,-2.4427,0.7099,-0.2672,48.81,79.91,-162.90
73741,-0.9702,-0.0754,-0.1719,-2.3130,0.7481,-1.9618,48.95,79.05,-156.30
74241,-0.9644,-0.0332,-0.1565,-2.3740,1.1527,-0.7786,48.86,80.58,-168.02
74741,-0.9607,-0.0503,-0.1687,-2.6107,1.2061,-0.5420,48.86,79.62,-163.40
75241,-0.9573,-0.0576,-0.1467,-2.5725,1.2519,-0.5878,48.95,80.65,-158.56
75741,-0.9651,-0.0354,-0.1729,-2.6412,1.0916,-1.0382,49.14,79.64,-168.43
76241,-0.9600,-0.0486,-0.1570,-2.7176,0.9237,-0.0229,48.95,80.29,-162.80
76741,-0.9497,-0.0486,-0.1670,-2.2901,0.8397,-2.1374,48.72,79.62,-163.78
77241,-0.9504,-0.0454,-0.1558,-2.3206,1.2519,-1.0000,48.81,80.31,-163.75
77741,-0.9470,-0.0605,-0.1621,-2.6107,0.9237,-1.8015,48.86,79.64,-159.52
78241,-0.9456,-0.0493,-0.1729,-2.6718,1.3817,-1.2519,49.14,79.24,-164.08
78741,-0.9666,-0.0508,-0.1558,-2.5802,0.9771,-0.1221,48.81,80.38,-161.94
79241,-0.9583,-0.0474,-0.1602,-1.5191,1.2977,-4.3130,48.81,80.11,-163.53
79741,-0.9521,-0.0630,-0.1643,-2.2061,0.4427,-2.3206,48.81,79.53,-159.03
80241,-0.9587,-0.0537,-0.1562,-2.7557,0.7863,-0.1527,49.00,80.22,-161.03
80741,-0.9653,-0.0454,-0.1646,-2.6336,1.1985,-0.3817,48.95,79.97,-164.57
81241,-1.0298,-0.0242,-0.2095,-3.3664,1.8397,-1.7176,48.86,78.43,-173.42
81741,-0.9609,-0.0449,-0.1667,-2.9618,1.0076,1.4351,48.81,79.81,-164.92
82241,-0.9426,-0.0632,-0.1565,-2.1145,1.1374,-1.1298,48.95,79.85,-158.00
82741,-0.9333,-0.0601,-0.1538,-1.9847,0.8702,-1.8473,48.81,79.97,-158.67
83241,-0.9387,-0.0415,-0.1870,-2.0076,0.6641,-4.7634,48.86,78.47,-167.49
83741,-0.9583,-0.0520,-0.1555,-2.8015,1.1527,1.3130,48.86,80.29,-161.51
84241,-0.9536,-0.0574,-0.1597,-2.3664,0.9695,-3.0000,48.86,79.91,-160.24
84741,-0.9592,-0.0413,-0.1621,-2.9924,0.8092,1.4504,49.00,80.11,-165.72
85241,-0.9451,-0.0603,-0.1702,-2.5878,0.6947,-0.9771,49.00,79.19,-160.49
85741,-0.9507,-0.0620,-0.1604,-2.2061,1.3359,-3.2061,48.72,79.75,-158.86
86241,-0.9480,-0.0571,-0.1609,-2.8321,1.0076,-0.0687,48.72,79.79,-160.45
86741,-0.9355,-0.0259,-0.1655,-2.9084,1.7786,1.9237,48.72,79.85,-171.11
87241,-0.9404,-0.0549,-0.1672,-1.9084,0.7099,-3.8397,48.81,79.40,-161.82
87741,-0.9465,-0.0703,-0.1445,-2.8626,1.5038,2.0916,49.14,80.36,-154.06
88241,-0.9519,-0.0459,-0.1824,-2.6412,1.0382,-2.0534,49.00,78.82,-165.87
88741,-0.9553,-0.0503,-0.1584,-2.5267,1.1374,-1.1145,49.00,80.13,-162.39
89241,-0.9602,-0.0454,-0.1621,-2.3969,1.1145,-0.7176,48.72,80.06,-164.35
89741,-0.9624,-0.0518,-0.1787,-3.2672,0.9237,1.8168,48.95,79.06,-163.85
90241,-0.9399,-0.0522,-0.1531,-4.5802,2.4885,0.7786,48.95,80.24,-161.15
90741,-0.9482,-0.0854,-0.1418,-1.2443,2.0840,-5.1221,48.86,80.09,-148.93
91241,-0.9653,-0.0613,-0.1697,-3.1069,0.7710,0.9924,48.62,79.41,-160.14
91741,-0.9529,-0.0627,-0.1711,-2.0076,0.8702,-4.1221,49.05,79.17,-159.87
92241,-0.9551,-0.0566,-0.1716,-2.3282,0.9847,-1.1985,48.86,79.28,-161.74
92741,-0.9646,-0.0522,-0.1638,-2.4733,1.3588,-0.6489,48.72,79.89,-162.31
93241,-0.9600,-0.0586,-0.1658,-2.1603,0.4962,-1.5496,48.72,79.62,-160.53
93741,-0.9348,-0.0430,-0.1758,-2.4122,1.1069,-1.5802,49.05,79.04,-166.26
94241,-0.9587,-0.0544,-0.1592,-2.7405,1.0153,-0.5649,48.81,80.05,-161.12
94741,-0.9492,-0.0588,-0.1704,-2.4427,0.6947,-0.8015,48.81,79.25,-160.95
95241,-0.9519,-0.0728,-0.1592,-2.5344,0.8931,-0.6718,48.81,79.58,-155.44
95741,-0.9460,-0.0583,-0.1687,-2.0916,0.7099,-2.3359,48.95,79.31,-160.92
96241,-0.9446,-0.0481,-0.1726,-2.4733,2.0916,-0.6336,48.72,79.26,-164.43
96741,-0.9575,-0.0476,-0.1592,-2.3817,0.8779,-0.9389,48.95,80.16,-163.35
97241,-0.9553,-0.0537,-0.1714,-2.4046,0.5878,-0.7939,49.14,79.35,-162.60
97741,-0.9495,-0.0601,-0.1685,-2.6336,1.3740,-0.8550,48.67,79.33,-160.38
98241,-0.9519,-0.0554,-0.1675,-2.5344,0.9389,-0.7099,48.95,79.50,-161.69
98741,-0.9509,-0.0466,-0.1672,-2.2290,0.9389,-1.4962,49.14,79.65,-164.42
99241,-0.9641,-0.0515,-0.1731,-1.5038,1.2748,-2.8550,49.00,79.39,-163.43
99741,-0.9592,-0.0334,-0.1755,-3.1603,1.4046,1.2977,48.86,79.45,-169.21
100241,-0.9478,-0.0525,-0.1670,-2.9771,0.6947,-0.4275,48.95,79.54,-162.55
100741,-0.9531,-0.0437,-0.1716,-2.4580,1.1527,-1.0916,48.72,79.47,-165.71
101241,-0.9709,-0.0400,-0.1614,-2.7634,0.7252,-2.2137,48.86,80.28,-166.07
101741,-0.9565,-0.0854,-0.1677,-2.3893,0.5344,-2.9237,48.72,78.87,-153.00
102241,-0.9617,-0.0728,-0.1658,-2.3817,0.7481,-1.7939,48.72,79.34,-156.30
102741,-0.9702,-0.0466,-0.1543,-2.6031,1.1298,0.8855,48.95,80.57,-163.18
103241,-0.9456,-0.0530,-0.1631,-2.6641,0.1679,1.3130,48.95,79.72,-162.00
103741,-0.9746,-0.0930,-0.1274,-2.6031,-2.8626,9.3740,48.72,80.80,-143.87
104241,-0.9583,-0.0161,-0.1589,-2.5038,1.3130,-0.6107,48.95,80.54,-174.21
104741,-0.9509,-0.0386,-0.1541,-3.3206,1.3969,2.8702,48.81,80.52,-165.94
105241,-0.9578,-0.0481,-0.1506,-2.6260,1.0687,-0.8168,48.95,80.63,-162.29
105741,-0.9502,-0.0361,-0.1624,-2.0916,1.1145,0.3359,48.86,80.07,-167.45
106241,-0.9333,-0.0579,-0.1663,-2.3740,1.3359,-1.2595,48.86,79.32,-160.81
106741,-0.9377,-0.0518,-0.1721,-2.4046,1.8321,-1.7099,48.72,79.15,-163.26
107241,-0.9565,-0.0496,-0.1697,-1.7939,1.1145,-4.6641,48.86,79.53,-163.72
107741,-0.8887,-0.2151,-0.1951,4.7863,10.7939,-5.3359,48.62,71.91,-132.21
108241,-0.9121,-0.1040,-0.1611,1.0382,7.0534,-10.7481,48.86,78.13,-147.16
108741,-0.9639,-0.0352,-0.1631,-2.0458,0.1756,-1.9389,48.86,80.18,-167.83
109241,-0.9500,-0.0359,-0.1582,-2.5878,2.4122,-1.7099,48.95,80.31,-167.22
109741,-0.9622,-0.0359,-0.1636,-2.2366,0.3130,-1.4427,48.72,80.13,-167.63
110241,-0.9641,-0.0286,-0.1541,-2.2366,1.5649,-1.1527,48.86,80.77,-169.50
110741,-0.9651,-0.0298,-0.1514,-2.1756,-0.3282,-1.6794,48.72,80.92,-168.87
111241,-0.9663,-0.0276,-0.1641,-2.3664,0.7481,-0.1908,48.95,80.23,-170.45
111741,-0.9595,-0.0298,-0.1538,-2.8855,1.1756,-0.9542,49.00,80.73,-169.04
112241,-0.9543,-0.0383,-0.1511,-2.4198,0.7099,-1.3740,49.14,80.72,-165.77
112741,-0.9563,-0.0298,-0.1597,-2.4275,0.5496,-0.9771,49.19,80.36,-169.43
113241,-0.9504,-0.0229,-0.1587,-2.5954,1.0916,-0.8550,48.95,80.42,-171.77
113741,-0.9802,-0.0342,-0.2014,1.4198,-1.9542,-0.1832,49.00,78.23,-170.37
114241,-0.9619,-0.0349,-0.1470,-2.6718,1.0305,-1.1603,48.81,81.07,-166.64
114741,-0.9473,-0.0330,-0.1648,-2.7023,1.2824,-0.7710,48.95,79.94,-168.69
115241,-0.9495,-0.0327,-0.1487,-2.0153,1.6641,-1.6870,48.86,80.89,-167.59
115741,-0.9473,-0.0281,-0.1565,-2.3893,1.1756,-0.9618,49.00,80.47,-169.83
116241,-0.9507,-0.0286,-0.1580,-2.4504,1.9389,-1.1298,48.86,80.42,-169.75
116741,-0.9553,-0.0261,-0.1580,-2.5878,1.7252,-0.7634,48.72,80.49,-170.61
117241,-0.9534,-0.0286,-0.1494,-2.5573,1.0687,-1.4275,48.95,80.93,-169.18
117741,-0.9583,-0.0334,-0.1479,-2.3588,1.1527,-0.2672,48.86,81.01,-167.26
118241,-0.9751,-0.0173,-0.1448,-2.5420,0.7786,-1.3130,48.81,81.50,-173.17
118741,-0.9548,-0.0200,-0.1465,-2.6794,1.4962,-2.2366,49.00,81.20,-172.22
119241,-0.9553,-0.0295,-0.1477,-2.4275,1.0534,-1.2901,49.05,81.04,-168.69
119741,-0.9717,-0.0269,-0.1497,-2.5573,0.9466,-0.5191,48.95,81.11,-169.83
120241,-0.9492,-0.0264,-0.1592,-2.6870,1.4351,-0.1145,48.81,80.35,-170.59
120741,-0.9500,-0.0352,-0.1487,-2.5420,1.5344,-1.0153,48.72,80.86,-166.70
121241,-0.9612,-0.0249,-0.1594,-2.2824,1.3740,-0.0763,48.95,80.47,-171.12
121741,-0.9639,-0.0293,-0.1494,-2.2061,-0.3435,0.6641,48.86,81.02,-168.91
122241,-0.9429,-0.0305,-0.1509,-2.4656,1.4427,-0.7634,49.05,80.73,-168.57
122741,-0.9443,-0.0298,-0.1599,-2.0229,0.8092,-1.1985,49.19,80.23,-169.45
123241,-0.9587,-0.0271,-0.1584,-2.6794,1.5725,-1.4198,48.95,80.48,-170.29
123741,-0.9626,-0.0261,-0.1489,-2.3817,1.1908,-1.5496,49.00,81.07,-170.05
124241,-0.9470,-0.0330,-0.1416,-3.0153,2.1756,0.3817,49.00,81.27,-166.90
124741,-0.9473,-0.0308,-0.1504,-2.4656,1.1908,-0.8473,49.14,80.80,-168.44
125241,-0.9631,-0.0137,-0.1455,-2.3969,0.6031,-0.3435,48.86,81.37,-174.63
125741,-0.9438,-0.0315,-0.1567,-1.9924,1.1221,-2.0458,49.05,80.39,-168.64
126241,-0.9565,-0.0310,-0.1504,-2.6412,1.4733,-1.1908,48.72,80.88,-168.35
126741,-0.9585,-0.0378,-0.1501,-2.4351,1.2901,-0.7405,48.72,80.82,-165.85
127241,-0.9500,-0.0354,-0.1550,-2.4351,0.8931,-0.4427,48.81,80.50,-167.14
127741,-0.9568,-0.0232,-0.1562,-2.3969,0.5802,-1.6489,48.81,80.63,-171.56
128241,-0.9575,-0.0312,-0.1440,-2.6107,1.1145,-0.3282,48.95,81.25,-167.76
128741,-0.9553,-0.0256,-0.1555,-2.4580,1.2748,-0.7252,48.86,80.63,-170.64
129241,-0.9507,-0.0298,-0.1479,-2.5191,1.0382,-0.3282,48.72,80.98,-168.62
129741,-0.9539,-0.0283,-0.1519,-2.4885,1.5115,-0.7099,48.95,80.80,-169.44
130241,-0.9614,-0.0366,-0.1541,-2.0840,0.8168,-1.9084,48.86,80.65,-166.63
130741,-0.9612,-0.0259,-0.1526,-2.6718,1.1679,1.2672,49.05,80.85,-170.37
131241,-0.9365,-0.0295,-0.1455,-2.1756,1.2672,-2.3053,49.14,80.99,-168.52
131741,-0.9502,-0.0374,-0.1472,-2.3588,0.8855,-1.5344,49.00,80.92,-165.76
132241,-0.9592,-0.0322,-0.1475,-2.2901,1.2061,-0.9008,49.05,81.06,-167.67
132741,-0.9504,-0.0298,-0.1418,-2.3740,0.8550,-1.3664,48.72,81.33,-168.14
133241,-0.9688,-0.0364,-0.1467,-2.2977,0.7023,-3.3817,48.81,81.13,-166.08
133741,-0.9697,-0.0295,-0.1553,-2.6183,0.3817,-1.8473,49.05,80.74,-169.23
134241,-0.9600,-0.0283,-0.1631,-2.6336,0.5878,-0.4504,48.95,80.22,-170.15
134741,-0.9583,-0.0229,-0.1436,-1.9924,1.0992,-1.3511,48.72,81.37,-170.92
135241,-0.9519,-0.0254,-0.1572,-2.2748,1.1603,-0.8702,49.05,80.50,-170.83
135741,-0.9519,-0.0269,-0.1494,-2.4656,1.0916,-0.5420,48.81,80.94,-169.81
136241,-0.9509,-0.0325,-0.1506,-2.5115,1.1145,-1.6870,48.86,80.80,-167.84
136741,-0.9619,-0.0332,-0.1562,-2.3893,0.6947,-0.5115,48.95,80.57,-168.00
137241,-0.9585,-0.0266,-0.1440,-2.7710,1.1069,0.7939,48.95,81.31,-169.53
137741,-0.9604,-0.0217,-0.1509,-2.1679,1.3740,-1.9008,48.81,80.98,-171.80
138241,-0.9541,-0.0225,-0.1523,-2.3740,1.0992,-0.3282,48.86,80.83,-171.61
138741,-0.9614,-0.0308,-0.1514,-2.4809,0.9695,-2.6489,49.00,80.87,-168.51
139241,-0.9592,-0.0271,-0.1511,-2.7405,1.2214,-0.2137,49.14,80.91,-169.83
139741,-0.9561,-0.0293,-0.1506,-2.7481,1.4580,0.3969,48.86,80.88,-168.99
140241,-0.9568,-0.0298,-0.1477,-2.1603,1.0153,-2.2061,48.72,81.05,-168.60
140741,-0.9568,-0.0208,-0.1497,-2.6718,1.1603,-0.8473,48.86,81.03,-172.11
141241,-0.9570,-0.0293,-0.1514,-2.6336,1.2519,-0.4351,49.14,80.85,-169.05
141741,-0.9490,-0.0251,-0.1653,-2.9008,0.7481,0.1298,49.00,80.01,-171.35
142241,-0.9585,-0.0327,-0.1506,-2.2901,1.2061,-2.2901,49.14,80.86,-167.75
142741,-0.9609,-0.0312,-0.1633,-2.6107,1.7863,-0.9084,48.72,80.18,-169.17
143241,-0.9583,-0.0259,-0.1538,-2.1374,1.7328,-1.8321,48.86,80.76,-170.45
143741,-0.9500,-0.0254,-0.1565,-2.5344,1.1832,-0.9313,48.72,80.53,-170.78
144241,-0.9583,-0.0361,-0.1455,-2.2061,1.1221,-1.4580,48.72,81.11,-166.05
144741,-0.9597,-0.0276,-0.1445,-2.6412,1.1832,0.1908,49.05,81.28,-169.19
145241,-0.9592,-0.0303,-0.1543,-2.6031,1.1145,-1.0534,49.14,80.69,-168.90
145741,-0.9512,-0.0332,-0.1548,-3.0992,1.7939,-0.1985,48.86,80.55,-167.89
146241,-0.9583,-0.0251,-0.1497,-2.1374,1.3664,-1.3588,48.95,81.00,-170.46
146741,-0.9565,-0.0203,-0.1567,-2.4275,0.9924,-0.8244,49.00,80.62,-172.63
147241,-0.9600,-0.0242,-0.1526,-2.7328,1.0763,-0.5115,49.00,80.86,-171.00
147741,-0.9595,-0.0300,-0.1511,-2.4122,1.1908,-0.7634,49.14,80.88,-168.76
148241,-0.9541,-0.0305,-0.1526,-2.3130,1.0305,-1.5878,49.00,80.74,-168.69
148741,-0.9634,-0.0332,-0.1411,-2.8321,1.2214,0.8321,48.53,81.44,-166.76
149241,-0.9626,-0.0295,-0.1575,-3.0229,1.5496,1.1374,48.72,80.55,-169.37
149741,-0.9514,-0.0212,-0.1497,-2.4198,1.0305,-1.4656,48.95,80.97,-171.92
150241,-0.9617,-0.0334,-0.1343,-2.5496,1.1985,-1.3511,49.00,81.81,-166.01
150741,-0.9551,-0.0283,-0.1516,-2.6031,1.0992,-1.1756,48.81,80.83,-169.42
151241,-0.9619,-0.0264,-0.1467,-2.1756,1.1527,-0.9313,48.72,81.19,-169.81
151741,-0.9478,-0.0364,-0.1482,-2.5267,1.9618,-0.8321,49.14,80.85,-166.21
152241,-0.9526,-0.0378,-0.1445,-2.6794,1.1908,-0.7023,48.86,81.09,-165.33
152741,-0.9543,-0.0146,-0.1526,-2.4962,1.4351,0.2290,48.86,80.87,-174.52
153241,-0.9541,-0.0403,-0.1436,-2.6641,1.0840,-0.5038,49.00,81.12,-164.33
153741,-0.9580,-0.0239,-0.1567,-2.1374,0.9160,-1.3511,48.95,80.60,-171.32
154241,-0.9583,-0.0349,-0.1436,-2.5267,1.4504,-1.1145,49.00,81.24,-166.33
154741,-0.9553,-0.0300,-0.1482,-2.3282,0.9542,-1.7023,49.14,81.01,-168.54
155241,-0.9570,-0.0249,-0.1545,-2.2824,1.2748,-0.7939,49.00,80.71,-170.85
155741,-0.9583,-0.0254,-0.1511,-2.4580,1.1832,-0.5878,48.86,80.91,-170.46
156241,-0.9497,-0.0310,-0.1438,-2.3282,1.3740,-1.5191,48.95,81.20,-167.83
156741,-0.9714,-0.0410,-0.1479,-2.3969,1.2595,-1.7786,48.81,81.02,-164.51
157241,-0.9709,-0.0381,-0.1553,-2.9237,0.9084,-0.1450,48.95,80.65,-166.22
157741,-0.9480,-0.0325,-0.1562,-2.4122,1.4885,-1.5420,49.05,80.44,-168.26
158241,-0.9314,-0.0156,-0.1799,-2.8473,-0.3740,-3.7863,48.67,79.03,-175.04
158741,-0.9792,-0.0325,-0.1497,-3.1450,0.8779,3.2824,49.19,81.11,-167.76
159241,-0.9658,-0.0354,-0.1650,-2.2137,1.5115,-2.4198,49.00,80.09,-167.89
159741,-0.9619,-0.0137,-0.1619,-3.3435,1.7176,4.1221,48.86,80.41,-175.17
160241,-0.9390,-0.0256,-0.1855,-2.0687,1.4275,-3.7557,48.86,78.72,-172.13
160741,-0.9636,-0.0320,-0.1492,-2.5267,-0.1756,-1.0153,48.72,81.00,-167.90
161241,-0.9719,-0.0132,-0.1545,-3.2519,1.8779,-0.2595,49.24,80.93,-175.12
161741,-0.9580,-0.0486,-0.1497,-2.9542,0.9771,-0.5954,48.95,80.67,-162.01
162241,-0.9502,-0.0139,-0.1396,-2.9008,0.9771,-1.2977,48.86,81.60,-174.31
162741,-0.9536,-0.0264,-0.1321,-2.7328,1.3588,-2.9771,49.00,81.96,-168.71
163241,-0.9685,-0.0293,-0.1375,-2.5573,0.3282,-1.0229,48.72,81.74,-167.97
163741,-0.9551,-0.0327,-0.1362,-2.4809,1.3511,-0.9008,48.86,81.65,-166.50
164241,-0.9421,-0.0271,-0.1531,-2.7328,1.7939,-0.0458,49.19,80.63,-169.96
164741,-0.9626,-0.0073,-0.1736,-2.7634,0.5573,-1.3664,48.81,79.77,-177.58
165241,-0.9497,-0.0283,-0.1504,-2.4122,1.7634,-1.5649,48.81,80.85,-169.34
165741,-0.9487,-0.0144,-0.1519,-2.5878,0.1832,-0.5191,49.00,80.87,-174.58
166241,-0.9517,-0.0220,-0.1467,-1.6260,0.5573,-1.9924,48.72,81.14,-171.48
166741,-0.9614,-0.0737,-0.1541,-2.5344,3.6336,-4.4351,48.86,79.93,-154.42
167241,-0.9453,-0.0530,-0.1477,-3.0840,0.5115,-1.1221,49.00,80.58,-160.27
167741,-0.9490,-0.0320,-0.1675,-2.9924,2.1985,1.9237,48.86,79.81,-169.19
168241,-0.9763,-0.0283,-0.1438,-2.9466,-0.2290,-4.2748,49.00,81.46,-168.86
168741,-0.9744,-0.0266,-0.1560,-2.5802,-0.6947,-1.1832,48.86,80.77,-170.32
169241,-0.9504,-0.0596,-0.1443,-2.5725,1.3053,-1.1450,48.62,80.67,-157.57
169741,-0.9644,-0.0276,-0.1477,-2.5267,1.5267,0.6718,48.86,81.14,-169.42
170241,-0.9648,-0.0154,-0.1519,-2.7023,1.3359,0.2214,48.86,81.01,-174.22
170741,-0.9604,-0.0415,-0.1514,-2.5649,0.8779,-1.7252,49.05,80.72,-164.67
171241,-0.9580,-0.0469,-0.1562,-2.9008,1.3053,-1.3359,48.86,80.34,-163.30
171741,-0.9800,-0.0732,-0.1150,-3.1069,1.7481,3.1450,49.14,82.08,-147.51
172241,-0.9539,-0.0396,-0.1729,-1.8779,5.3740,-10.8321,48.95,79.47,-167.11
172741,-0.9402,-0.0459,-0.1675,-2.9847,1.1069,2.1069,49.00,79.54,-164.67
173241,-1.0183,0.0161,-0.1362,-6.8321,7.5802,-2.5725,48.95,82.33,173.25
173741,-0.9480,-0.0271,-0.1631,-2.6412,0.7023,0.4809,48.81,80.11,-170.57
174241,-0.9592,-0.0166,-0.1345,-2.5573,1.2290,-0.4198,48.81,81.96,-172.96
174741,-0.9539,-0.0134,-0.1685,-2.5344,1.3282,-1.3740,48.81,79.95,-175.44
175241,-0.9546,-0.0225,-0.1514,-2.5725,1.0153,-1.6641,49.00,80.89,-171.56
175741,-0.9524,-0.0159,-0.1465,-2.1450,1.0153,-2.6260,49.05,81.21,-173.82
176241,-0.9443,-0.0122,-0.1614,-2.3664,0.2214,-2.1221,49.05,80.28,-175.67
176741,-0.9600,-0.0215,-0.1396,-2.6183,1.3740,-0.0534,48.72,81.63,-171.25
177241,-0.9558,-0.0332,-0.1360,-2.5573,0.6794,-0.1374,48.72,81.67,-166.28
177741,-0.9585,-0.0361,-0.1401,-2.4275,0.8626,-1.3206,48.86,81.41,-165.54
178241,-0.9602,-0.0242,-0.1406,-2.5954,0.7710,-1.5496,48.81,81.55,-170.25
178741,-0.9590,-0.0071,-0.1538,-2.6031,1.3511,0.2214,48.86,80.88,-177.36
179241,-0.9551,-0.0232,-0.1501,-2.1985,0.9237,-2.4885,48.95,80.96,-171.22
179741,-0.9475,-0.0356,-0.1433,-2.4580,1.4809,-0.8931,48.95,81.14,-166.03
180241,-0.9536,-0.0232,-0.1443,-2.0382,0.1069,-2.7634,49.00,81.29,-170.87
180741,-0.9509,-0.0112,-0.1555,-2.4427,0.7939,-1.9084,48.86,80.69,-175.87
181241,-0.9666,-0.0288,-0.1370,-2.3282,0.3359,0.2748,48.95,81.76,-168.12
181741,-0.9553,-0.0181,-0.1555,-2.4885,1.2824,-0.4809,48.86,80.69,-173.37
182241,-0.9539,-0.0188,-0.1489,-2.6794,1.5038,-0.6336,49.00,81.06,-172.81
182741,-0.9663,-0.0142,-0.1501,-2.5420,0.9084,-1.4275,48.81,81.13,-174.61
183241,-0.9575,-0.0198,-0.1550,-2.4962,1.2137,-1.0763,48.53,80.73,-172.73
183741,-0.9529,-0.0247,-0.1460,-2.3740,0.9618,-1.2901,48.95,81.17,-170.41
184241,-0.9565,-0.0273,-0.1443,-2.4427,1.2901,-1.3053,48.81,81.27,-169.27
184741,-0.9504,-0.0205,-0.1531,-2.2977,1.2977,-1.1527,48.95,80.77,-172.37
185241,-0.9517,-0.0217,-0.1567,-2.3893,0.5649,-1.7405,48.95,80.56,-172.11
185741,-0.9321,-0.0110,-0.1929,-2.0076,0.0534,-1.5649,49.00,78.29,-176.74
186241,-0.9751,-0.0139,-0.1111,-1.9313,1.7863,-1.8015,48.95,83.45,-172.86
186741,-0.9492,-0.0305,-0.1462,-2.1374,0.5038,-2.4504,48.95,81.06,-168.21
187241,-0.9619,-0.0271,-0.1545,-2.6565,1.5878,-0.0382,49.00,80.74,-170.05
187741,-0.9612,-0.0305,-0.1333,-2.2061,1.7252,-2.6870,49.14,81.90,-167.11
188241,-0.9609,-0.0171,-0.1646,-2.4580,0.9313,0.0382,49.00,80.23,-174.07
188741,-0.9658,0.0715,-0.2017,-2.1069,4.6412,3.7328,48.81,77.51,160.47
189241,-0.9507,-0.0356,-0.1560,-2.2290,0.6260,-3.5878,48.86,80.45,-167.13
189741,-2.0000,-0.7075,1.0901,-250.1374,250.1298,77.2672,48.72,56.98,-32.99
190241,-0.1897,0.4004,-0.6763,-82.6412,59.1832,-13.7252,48.95,13.57,149.37
190741,-0.5894,0.4585,-0.6650,123.9237,-50.1832,-16.6336,48.81,36.11,145.42
191241,-0.3379,-0.2959,-0.4934,172.4122,42.9695,-147.5267,48.72,30.43,-149.05
191741,-0.3411,-0.8264,-0.1199,11.2137,-23.6641,70.5649,48.67,22.22,-98.25
192241,-0.5974,-0.8027,-0.0178,-6.7328,1.0076,-2.0687,48.81,36.65,-91.27
192741,-0.5854,-0.8125,-0.0156,-2.1221,1.3359,-0.6565,48.95,35.77,-91.10
193241,-0.5605,-0.8362,-0.0286,-2.5038,1.5191,-0.6870,48.95,33.82,-91.96
193741,-0.5867,-0.8113,-0.0376,-2.5267,1.1145,-0.8702,49.00,35.84,-92.65
194241,-0.5793,-0.8076,-0.0154,-1.7099,0.5115,0.2443,48.86,35.65,-91.09
194741,-0.5764,-0.8044,-0.0251,-2.6641,1.1679,-1.0534,48.81,35.61,-91.79
195241,-0.5781,-0.7959,-0.0291,-2.8015,1.2061,-0.9084,48.86,35.98,-92.09
195741,-0.5808,-0.8071,-0.0117,-2.9847,1.1221,-1.9389,48.81,35.74,-90.83
196241,-0.5852,-0.8003,-0.0200,-2.2366,1.1221,-0.8779,48.86,36.17,-91.43
196741,-0.5784,-0.8042,-0.0281,-2.4809,0.8321,-0.8855,48.95,35.71,-92.00
197241,-0.5562,-0.8098,-0.0261,-2.7939,0.5725,-1.1145,48.86,34.47,-91.85
197741,-0.5747,-0.7927,-0.0288,-2.9008,1.5191,-1.7481,48.95,35.92,-92.08
198241,-0.5969,-0.8103,-0.0349,-2.9313,0.8855,-0.7176,48.95,36.35,-92.47
198741,-0.6331,-0.8479,0.0234,-1.8473,1.0000,-2.0687,48.81,36.74,-88.42
199241,-0.5828,-0.8130,-0.0256,-2.4351,1.2672,-1.3588,48.72,35.62,-91.81
199741,-0.5723,-0.7910,-0.0239,-2.8550,1.2901,-1.3511,49.00,35.87,-91.73
200241,-0.5664,-0.8083,-0.0073,-2.4885,1.1450,-1.3206,48.48,35.02,-90.52
200741,-0.5825,-0.8022,-0.0344,-2.4504,0.9160,-1.0611,49.00,35.96,-92.46
201241,-0.5803,-0.8086,-0.0093,-3.7176,1.7099,-2.2519,48.72,35.66,-90.66
201741,-0.5740,-0.7966,-0.0378,-2.0305,0.5954,-0.2519,48.67,35.74,-92.72
202241,-0.5566,-0.8008,-0.0312,-2.4427,0.9313,-0.7176,49.00,34.78,-92.23
202741,-0.5686,-0.7927,-0.0266,-2.6107,0.9084,-0.9084,49.00,35.64,-91.92
203241,-0.6035,-0.7190,-0.0840,25.5878,24.6870,17.0992,48.86,39.82,-96.66
203741,-0.7141,-0.6829,-0.0581,-2.4122,1.4351,-1.0687,48.72,46.18,-94.86
204241,-0.7183,-0.6721,-0.0652,-2.2748,0.6412,-0.6412,48.81,46.77,-95.54
204741,-0.7075,-0.6780,-0.0615,-3.1069,1.3282,-0.7863,48.86,46.10,-95.19
205241,-0.7241,-0.6697,-0.0708,-2.5191,1.2214,-0.8626,49.00,47.08,-96.04
205741,-0.7185,-0.6807,-0.0598,-2.5573,1.3588,-1.1908,48.72,46.44,-95.02
206241,-0.6982,-0.6553,-0.0793,-3.0763,2.1832,-0.8931,48.86,46.61,-96.90
206741,-0.7180,-0.6733,-0.0530,-2.0382,0.0229,-0.7176,48.95,46.75,-94.50
207241,-0.7227,-0.6724,-0.0518,-1.7634,-0.4885,-0.0763,48.67,46.98,-94.40
207741,-0.7119,-0.6687,-0.0942,-2.4427,1.6183,-1.3740,48.72,46.51,-98.02
208241,-0.7153,-0.6682,-0.0718,-1.2748,1.0000,-1.8092,48.86,46.79,-96.13
208741,-0.6729,-0.6868,-0.0906,-3.0534,2.3206,-0.0763,48.72,44.17,-97.51
209241,-0.6775,-0.6777,-0.0781,-3.5420,1.7863,-0.6641,48.81,44.80,-96.58
209741,-0.7334,-0.6694,-0.0671,-1.2824,0.2214,-2.0687,48.95,47.47,-95.73
210241,-0.7217,-0.6628,-0.0693,-2.6183,0.8931,-0.8550,48.62,47.28,-95.97
210741,-0.7065,-0.6775,-0.0735,-2.6489,1.3893,-1.2824,48.95,46.04,-96.19
211241,-0.7200,-0.6782,-0.0662,-2.8931,3.3511,-2.4351,48.86,46.57,-95.57
211741,-0.7434,-0.6824,-0.0713,-2.4427,0.3664,0.7099,48.95,47.30,-95.96
212241,-0.7075,-0.6748,-0.0730,-2.5344,1.4885,-1.0611,48.86,46.19,-96.17
212741,-0.7271,-0.6677,-0.0730,-2.5954,0.3893,-0.5420,48.81,47.27,-96.24
213241,-0.7117,-0.6716,-0.0715,-2.7405,1.3359,-1.3740,49.00,46.50,-96.08
213741,-0.7178,-0.6660,-0.0742,-2.5115,1.3664,-0.7634,48.72,46.97,-96.36
214241,-0.7178,-0.6687,-0.0708,-2.8015,1.1832,-1.0076,48.72,46.87,-96.04
214741,-0.7197,-0.6648,-0.0645,-2.4122,0.9389,-0.8931,48.95,47.14,-95.54
215241,-0.7205,-0.6592,-0.0735,-2.8168,1.0763,-0.8397,49.14,47.37,-96.36
215741,-0.7246,-0.6643,-0.0640,-2.6260,1.1985,-1.1069,48.81,47.35,-95.50
216241,-0.7334,-0.6670,-0.0674,-2.2748,1.0076,-1.4504,48.86,47.57,-95.77
216741,-0.7283,-0.6655,-0.0723,-2.2214,1.0534,-1.4656,48.72,47.41,-96.20
217241,-0.7239,-0.6675,-0.0820,-2.5725,1.3969,-1.1450,48.95,47.11,-97.01
217741,-0.7271,-0.6770,-0.0837,-3.2443,1.4962,0.0153,48.95,46.82,-97.05
218241,-0.7083,-0.6660,-0.0669,-2.8168,1.8397,-1.5802,48.95,46.62,-95.74
218741,-0.7214,-0.6660,-0.0740,-2.3969,1.2443,-1.2366,48.67,47.11,-96.34
219241,-0.7178,-0.6692,-0.0808,-2.4122,0.8473,-0.5954,48.86,46.80,-96.89
219741,-0.7212,-0.6609,-0.0750,-2.5267,0.7939,-0.7863,49.05,47.32,-96.47
220241,-0.7231,-0.6655,-0.0740,-2.5191,0.9847,-1.1756,48.72,47.20,-96.34
220741,-0.7185,-0.6655,-0.0715,-2.4046,1.2824,-1.0229,48.72,47.03,-96.13
221241,-0.7263,-0.6667,-0.0659,-2.4122,1.0382,-1.2290,48.72,47.31,-95.65
221741,-0.7161,-0.6655,-0.0767,-2.5802,1.3282,-1.2061,48.86,46.91,-96.57
222241,-0.7207,-0.6289,-0.0703,-2.2977,1.0305,-2.0611,48.81,48.71,-96.38
222741,-0.7112,-0.6626,-0.0796,-2.4198,0.9160,-0.6947,48.86,46.82,-96.85
223241,-0.7231,-0.6694,-0.0735,-2.3511,1.0229,-1.4733,49.05,47.04,-96.26
223741,-0.7405,-0.6611,-0.0667,-1.8397,0.8855,-1.6947,48.72,48.10,-95.76
224241,-0.7102,-0.6658,-0.0820,-2.8244,1.5267,-0.8092,48.86,46.63,-97.02
224741,-0.7107,-0.6370,-0.0278,-1.5267,2.0153,-0.9389,48.95,48.10,-92.50
225241,-0.7258,-0.6707,-0.0781,-2.3893,1.3206,-0.8855,48.95,47.07,-96.64
225741,-0.7205,-0.6697,-0.0696,-2.4809,1.2901,-1.5191,48.81,46.94,-95.93
226241,-0.7292,-0.6672,-0.0815,-2.2290,0.9237,-0.5496,48.67,47.33,-96.97
226741,-0.7175,-0.6626,-0.0774,-2.4198,0.6412,-1.1069,48.62,47.09,-96.66
227241,-0.7166,-0.6392,-0.0789,-2.4427,1.0611,-1.8473,48.72,48.05,-97.03
227741,-0.7087,-0.6714,-0.0742,-2.4885,1.0534,-1.1069,48.62,46.38,-96.31
228241,-0.7200,-0.6682,-0.0752,-2.3740,0.8015,-0.8168,48.72,46.96,-96.42
228741,-0.7253,-0.6577,-0.0928,-2.6260,1.7099,0.0992,48.81,47.52,-98.03
229241,-0.7358,-0.6877,-0.0593,-3.3511,1.9389,0.1603,48.62,46.83,-94.93
229741,-0.6997,-0.6533,-0.0920,-2.3969,1.5191,-2.3130,48.95,46.68,-98.02
230241,-0.7097,-0.6741,-0.0791,-2.9084,1.3359,-0.5649,48.53,46.28,-96.69
230741,-0.7383,-0.6418,-0.1067,-2.8931,2.2214,0.0458,48.62,48.61,-99.44
231241,-0.7139,-0.6843,-0.0500,-2.6260,1.1221,-1.1832,48.72,46.13,-94.18
231741,-0.7236,-0.6619,-0.0884,-2.1069,-0.2672,-1.4351,48.72,47.30,-97.61
232241,-0.7224,-0.6672,-0.0837,-2.7939,1.3817,-0.9695,48.67,47.05,-97.15
232741,-0.7097,-0.6726,-0.0759,-2.6107,0.8015,-0.5802,48.67,46.36,-96.44
233241,-0.7168,-0.6594,-0.0850,-2.5038,1.0916,-1.0305,48.81,47.15,-97.34
233741,-0.7195,-0.6694,-0.0735,-2.5115,0.6183,-0.7786,48.81,46.89,-96.26
234241,-0.7468,-0.6633,-0.0854,-2.2519,1.3740,-2.0840,48.67,48.15,-97.34
234741,-0.7117,-0.6729,-0.0891,-3.0305,1.4427,-1.2519,48.86,46.36,-97.54
235241,-0.7117,-0.6650,-0.0786,-2.4427,1.1756,-0.8626,48.72,46.74,-96.74
235741,-0.7061,-0.6631,-0.0933,-2.1221,0.7405,-0.6412,48.62,46.52,-98.01
236241,-0.7336,-0.6553,-0.0813,-2.3435,0.7481,-1.3511,48.67,48.01,-97.07
236741,-0.7239,-0.6550,-0.0835,-2.7252,0.7557,-1.0458,48.72,47.63,-97.26
237241,-0.7083,-0.6731,-0.0845,-2.4885,1.5954,-1.3511,48.81,46.23,-97.15
237741,-0.7190,-0.6604,-0.0818,-2.5267,0.7863,-0.8855,48.67,47.22,-97.06
238241,-0.7195,-0.6653,-0.0803,-2.3664,1.3282,-1.3053,48.81,47.03,-96.88
238741,-0.7346,-0.6462,-0.0867,-1.5496,0.3817,0.8779,48.72,48.41,-97.64
239241,-0.7222,-0.6580,-0.0752,-2.8092,0.9008,-0.8626,48.86,47.48,-96.52
239741,-0.6948,-0.6702,-0.0889,-2.0840,0.6718,-1.6565,48.72,45.79,-97.55
240241,-0.7595,-0.6750,-0.0828,-4.0687,2.6947,-1.5496,48.62,48.16,-96.99
240741,-0.7273,-0.6887,-0.0791,-2.8702,0.5191,-1.2824,48.53,46.37,-96.55
241241,-0.7119,-0.6812,-0.0896,-2.9771,1.0840,0.2672,48.72,46.02,-97.49
241741,-0.6965,-0.6531,-0.0928,-1.9313,1.2214,-2.5267,48.48,46.56,-98.09
242241,-0.7246,-0.6775,-0.0811,-3.0229,2.0458,-0.7557,48.48,46.72,-96.82
242741,-0.7310,-0.6726,-0.0798,-2.4885,0.6794,-0.8473,48.81,47.18,-96.77
243241,-0.6707,-0.6655,-0.1016,-1.7328,0.5573,-1.3588,48.53,44.89,-98.68
243741,-0.6816,-0.6702,-0.0696,-3.8702,-0.0153,2.1145,48.81,45.33,-95.93
244241,-0.7620,-0.6667,-0.0784,-1.0000,-2.0229,-2.3359,48.53,48.62,-96.70
244741,-0.7371,-0.6746,-0.0764,-2.5573,1.1985,-0.6107,48.67,47.35,-96.46
245241,-0.7168,-0.6519,-0.0920,-2.3664,0.3282,-1.3130,48.53,47.43,-98.04
245741,-0.7180,-0.6621,-0.0872,-2.6870,1.3282,-1.2901,48.72,47.07,-97.50
246241,-0.7185,-0.6650,-0.0859,-2.3206,0.6870,-1.1374,48.86,46.98,-97.36
246741,-0.7244,-0.6580,-0.0869,-2.5725,1.0000,-0.5038,48.53,47.50,-97.52
247241,-0.7192,-0.6604,-0.0740,-2.4733,0.8931,-1.3893,48.62,47.26,-96.39
247741,-0.7288,-0.6516,-0.0837,-2.1832,0.5496,-0.4046,48.62,47.97,-97.32
248241,-0.6807,-0.6606,-0.1018,-2.1298,1.2977,-2.0763,48.62,45.52,-98.76
248741,-0.7302,-0.6692,-0.0798,-2.0458,0.8321,0.0916,48.62,47.30,-96.80
249241,-0.7188,-0.6636,-0.0891,-2.4122,0.6260,-1.7634,48.62,47.03,-97.65
249741,-0.7227,-0.6628,-0.0869,-2.5191,0.9466,-1.1832,48.72,47.23,-97.47
250241,-0.7151,-0.6675,-0.0818,-2.4427,0.8321,-1.5420,48.62,46.76,-96.99
250741,-0.7185,-0.6614,-0.1006,-2.7328,1.4809,-0.5954,48.62,47.04,-98.65
251241,-0.7195,-0.6753,-0.0823,-2.6489,0.7634,0.4809,48.67,46.60,-96.95
251741,-0.7439,-0.6550,-0.0864,-2.8397,1.5573,-2.1679,48.62,48.39,-97.52
252241,-0.7185,-0.6685,-0.0857,-2.8855,1.7328,-1.2977,48.48,46.83,-97.31
252741,-0.7148,-0.6650,-0.0847,-2.3893,0.3588,-1.0305,48.72,46.84,-97.26
253241,-0.7192,-0.6609,-0.0894,-2.2443,1.0305,-0.7939,48.53,47.16,-97.70
253741,-0.7175,-0.6675,-0.0869,-2.3740,0.9084,-1.1832,49.00,46.83,-97.42
254241,-0.7266,-0.6626,-0.0864,-2.2595,0.2443,-1.0534,48.95,47.40,-97.43
254741,-0.7129,-0.6624,-0.0916,-2.7176,1.4351,-0.9771,48.53,46.83,-97.87
255241,-0.7195,-0.6641,-0.0901,-2.4351,0.8015,-0.8321,48.62,47.03,-97.73
255741,-0.7209,-0.6594,-0.0898,-2.6489,1.1832,-1.3588,48.72,47.29,-97.76
256241,-0.7202,-0.6648,-0.0874,-2.5573,0.8779,-0.6107,48.72,47.05,-97.49
256741,-0.7222,-0.6641,-0.0874,-2.5649,1.0458,-1.2137,48.81,47.15,-97.50
257241,-0.7188,-0.6621,-0.0913,-2.5802,1.0916,-0.7023,48.72,47.08,-97.85
257741,-0.7202,-0.6641,-0.0930,-2.6412,1.2366,-1.0305,48.72,47.05,-97.97
258241,-0.7205,-0.6611,-0.0840,-2.4046,0.9771,-1.0534,49.00,47.23,-97.24
258741,-0.7202,-0.6616,-0.0925,-2.4198,1.2137,-1.0305,48.48,47.15,-97.96
259241,-0.7327,-0.6721,-0.0796,-2.7557,1.2366,-0.9847,48.34,47.27,-96.75
259741,-0.7273,-0.6550,-0.0920,-2.9084,1.2519,-0.5115,48.48,47.71,-98.00
260241,-0.7141,-0.6780,-0.0745,-1.8244,0.3053,-0.6947,48.67,46.32,-96.27
260741,-0.7190,-0.6665,-0.0867,-2.4198,1.1985,-1.3053,48.67,46.93,-97.41
261241,-0.7266,-0.6606,-0.0945,-2.7481,1.5496,-0.7176,48.53,47.43,-98.14
261741,-0.7190,-0.6614,-0.0864,-2.6336,1.0458,-1.1221,48.72,47.15,-97.44
262241,-0.7188,-0.6626,-0.0930,-2.3969,0.8244,-1.2595,48.95,47.05,-97.99
262741,-0.7268,-0.6665,-0.0825,-2.4733,1.3130,-1.2977,48.44,47.26,-97.06
263241,-0.7192,-0.6602,-0.0852,-2.4427,0.7710,-0.9389,48.62,47.22,-97.35
263741,-0.7207,-0.6587,-0.0920,-2.5038,1.5038,-0.9160,48.53,47.30,-97.95
264241,-0.7100,-0.6594,-0.0947,-2.7252,1.0153,-0.3130,48.72,46.82,-98.17
264741,-0.7346,-0.6531,-0.1028,-2.3206,0.8473,-0.5038,48.62,48.01,-98.94
265241,-0.7451,-0.6575,-0.0913,-3.2824,2.5496,-0.2366,48.72,48.30,-97.91
265741,-0.6873,-0.6597,-0.0950,-2.6107,1.7557,-1.9008,48.67,45.88,-98.19
266241,-0.7339,-0.6633,-0.0920,-2.4809,0.1527,0.0611,48.53,47.62,-97.90
266741,-0.7300,-0.6538,-0.0896,-2.0382,0.1985,-1.5267,48.81,47.89,-97.80
267241,-0.7095,-0.6567,-0.0933,-2.7710,1.8092,-0.5878,48.72,46.93,-98.08
267741,-0.7256,-0.6633,-0.0791,-2.4275,0.5802,-0.4351,48.62,47.36,-96.80
268241,-0.7173,-0.6672,-0.1013,-2.7939,1.1756,-0.3817,48.48,46.74,-98.63
268741,-0.7244,-0.6611,-0.0872,-2.5420,0.7252,-1.2672,48.72,47.37,-97.51
269241,-0.7227,-0.6538,-0.1038,-2.3130,1.4046,-0.5954,48.72,47.51,-99.02
269741,-0.7136,-0.6628,-0.0930,-2.7023,1.2901,-0.8931,48.72,46.83,-97.99
270241,-0.7297,-0.6602,-0.0896,-2.4198,0.7634,-0.9160,48.72,47.61,-97.73
270741,-0.7278,-0.6604,-0.1008,-3.0992,2.1374,-0.0229,48.62,47.45,-98.68
271241,-0.7083,-0.6782,-0.0759,-1.9084,-0.1145,-2.3206,48.44,46.06,-96.39
271741,-0.7146,-0.6475,-0.1086,-2.4580,0.3053,-1.1145,48.53,47.43,-99.53
272241,-0.7349,-0.6638,-0.0940,-2.3893,1.5954,-0.8092,48.29,47.62,-98.06
272741,-0.7271,-0.6543,-0.0986,-2.3664,0.8397,-0.8702,48.62,47.69,-98.57
273241,-0.7241,-0.6584,-0.0920,-2.5954,1.2214,-1.3053,48.72,47.44,-97.96
273741,-0.7231,-0.6570,-0.0981,-2.4275,0.8015,-0.7099,48.95,47.43,-98.50
274241,-0.7239,-0.6599,-0.0972,-2.5573,1.2290,-1.3969,48.48,47.34,-98.38
274741,-0.7175,-0.6545,-0.0972,-2.4504,1.1908,-0.8702,48.67,47.32,-98.44
275241,-0.7041,-0.6619,-0.0881,-2.5573,1.1527,-0.4809,48.67,46.52,-97.58
275741,-0.7290,-0.6357,-0.1182,-2.6870,1.0458,-0.7176,48.62,48.43,-100.53
276241,-0.7200,-0.6646,-0.0886,-2.1221,0.8702,-1.4427,48.48,47.04,-97.60
276741,-0.7202,-0.6538,-0.0930,-2.3511,0.4885,-0.9389,48.62,47.48,-98.10
277241,-0.7273,-0.6555,-0.0930,-2.3206,0.5649,-0.6107,48.53,47.69,-98.08
277741,-0.7285,-0.6560,-0.1028,-2.4962,1.0305,-1.3053,48.44,47.65,-98.90
278241,-0.7151,-0.6582,-0.1060,-2.3817,1.2366,-0.8855,48.72,47.01,-99.14
278741,-0.7053,-0.6504,-0.1018,-2.6565,1.7557,-1.9160,48.62,46.97,-98.90
279241,-0.7234,-0.7188,-0.1135,4.0000,-0.0687,-8.1450,48.53,44.83,-98.98
279741,-0.6885,-0.6624,-0.0947,-2.0000,2.4351,-1.8931,48.48,45.82,-98.14
280241,-0.6951,-0.6924,-0.0903,-2.5191,1.0382,-0.4351,48.72,44.87,-97.43
280741,-0.7148,-0.6704,-0.0884,-2.4122,0.8397,-1.3435,48.53,46.59,-97.51
281241,-0.7188,-0.6714,-0.0938,-2.5878,1.7099,-0.8931,48.48,46.68,-97.95
281741,-0.6921,-0.6792,-0.0757,-2.4427,0.9084,-1.2901,48.62,45.36,-96.36
282241,-0.7131,-0.6785,-0.1028,-2.5038,1.5344,-0.6565,48.62,46.10,-98.61
282741,-0.7585,-0.6775,-0.0894,-3.2595,0.5573,-0.6183,48.62,47.98,-97.51
283241,-0.6985,-0.6750,-0.0791,-2.8626,1.7023,-1.1374,48.67,45.78,-96.68
283741,-0.6895,-0.6609,-0.0896,-1.8244,0.7939,-1.4885,48.81,45.95,-97.72
284241,-0.7312,-0.6770,-0.1133,-3.0382,4.3817,-1.6794,48.62,46.81,-99.50
284741,-0.7029,-0.6665,-0.0991,-2.9313,0.9924,-1.0763,48.48,46.21,-98.46
285241,-0.7114,-0.6636,-0.1069,-2.5267,1.6336,-0.8855,48.72,46.63,-99.15
285741,-0.7080,-0.6726,-0.0920,-2.3588,1.1756,-1.3130,48.44,46.20,-97.79
286241,-0.7129,-0.7031,-0.0957,-1.9389,1.2824,-0.4122,48.53,45.13,-97.75
286741,-0.8210,-0.6042,-0.0923,-2.5191,0.4656,-2.9847,48.72,53.33,-98.68
287241,-0.6946,-0.6731,-0.1111,-2.6565,0.6565,0.0076,48.53,45.52,-99.37
287741,-0.7332,-0.6497,-0.1160,-2.5725,1.2443,-1.0763,48.86,48.01,-100.12
288241,-0.7195,-0.6484,-0.1033,-2.0611,0.2672,-1.0382,48.48,47.62,-99.05
288741,-0.6987,-0.6748,-0.0815,-2.5802,0.9389,-0.8473,48.62,45.79,-96.89
289241,-0.7314,-0.6731,-0.1062,-2.3206,0.3359,-0.7328,48.67,47.03,-98.97
289741,-0.7307,-0.6458,-0.0898,-2.4122,-0.0153,-1.2290,48.72,48.26,-97.92
290241,-0.7371,-0.6770,-0.0867,-2.0458,0.3511,-0.2366,48.34,47.20,-97.30
290741,-0.7129,-0.6643,-0.1086,-2.9389,1.8702,-1.4427,48.48,46.64,-99.29
291241,-0.7307,-0.6799,-0.1011,-2.7481,0.8779,0.5802,48.44,46.75,-98.46
291741,-0.7117,-0.6702,-0.0952,-2.3664,-0.1221,-1.1450,48.62,46.43,-98.09
292241,-0.7212,-0.6614,-0.1084,-2.5725,1.3053,0.1832,48.44,47.10,-99.31
292741,-0.7124,-0.6758,-0.0825,-3.0916,1.0076,-0.4351,48.44,46.30,-96.96
293241,-0.6985,-0.6665,-0.0959,-2.5496,1.1908,-0.9389,48.53,46.05,-98.19
293741,-0.7075,-0.6641,-0.1013,-2.2214,1.1832,-1.3053,48.48,46.49,-98.67
294241,-0.7148,-0.6697,-0.0938,-2.1756,1.1298,-0.8626,48.62,46.59,-97.97
294741,-0.7185,-0.6719,-0.0955,-2.0382,0.7176,-0.9008,48.48,46.64,-98.09
295241,-0.7166,-0.6606,-0.1003,-2.5573,1.2748,-0.8397,48.53,47.00,-98.64
295741,-0.5605,-0.6890,-0.0662,-7.5725,-3.6183,-4.9618,48.53,39.00,-95.49
296241,-0.7146,-0.6597,-0.0981,-2.0000,0.5267,-0.9466,48.44,46.98,-98.46
296741,-0.7241,-0.6765,-0.0837,-2.5344,1.0458,-1.1374,48.48,46.73,-97.06
297241,-0.7134,-0.6707,-0.0908,-2.2137,0.6260,-0.9924,48.48,46.51,-97.71
297741,-0.7178,-0.6687,-0.0989,-2.7099,1.0382,-0.9084,48.48,46.72,-98.41
298241,-0.7151,-0.6738,-0.0942,-2.6107,1.3053,-1.3359,48.53,46.42,-97.96
298741,-0.7197,-0.6667,-0.0994,-2.4275,1.0992,-0.9237,48.44,46.87,-98.48
299241,-0.7092,-0.6660,-0.0935,-2.2595,0.8244,-0.8779,48.53,46.52,-97.99
299741,-0.7161,-0.6641,-0.1023,-2.6412,2.3588,-0.9695,48.72,46.82,-98.76
300241,-0.7788,-0.6365,-0.2512,-2.0458,3.2977,0.7328,48.72,48.70,-111.54
300741,-0.7095,-0.6809,-0.0774,-2.4885,-0.2366,-1.3282,48.48,45.99,-96.48
301241,-0.7290,-0.6594,-0.1128,-2.1756,1.7328,-0.7634,48.48,47.46,-99.71
301741,-0.7188,-0.6680,-0.1084,-2.7328,1.5954,-1.3664,48.67,46.73,-99.22
302241,-0.7188,-0.6724,-0.0967,-3.0458,0.5725,-0.2824,48.53,46.62,-98.18
302741,-0.7065,-0.6758,-0.0869,-2.1985,0.5191,-1.2443,48.44,46.04,-97.33
303241,-0.7146,-0.6702,-0.1099,-2.7786,0.8855,-0.7328,48.44,46.46,-99.31
303741,-0.7146,-0.6704,-0.1016,-2.5954,1.3282,-0.8092,48.44,46.50,-98.61
304241,-0.7185,-0.6680,-0.0854,-2.2824,0.8779,-0.9771,48.44,46.86,-97.29
304741,-0.7197,-0.6660,-0.0938,-2.4809,0.7176,-1.0611,48.48,46.94,-98.01
305241,-0.7170,-0.6650,-0.0933,-2.7863,1.5267,-0.7023,48.34,46.88,-97.98
305741,-0.7104,-0.6660,-0.0989,-2.4885,0.8473,-0.9695,48.72,46.54,-98.44
306241,-0.7153,-0.6653,-0.0991,-2.2824,0.7786,-0.9924,48.72,46.76,-98.47
306741,-0.7124,-0.6702,-0.0974,-2.7710,1.3130,-1.0534,48.34,46.45,-98.27
307241,-0.7114,-0.6743,-0.0830,-2.1679,1.5649,-1.2290,48.62,46.32,-97.02
307741,-0.7151,-0.6638,-0.1042,-2.0916,0.6260,-1.1756,48.48,46.78,-98.92
308241,-0.7209,-0.6765,-0.0818,-2.4733,0.7939,-1.1756,48.53,46.61,-96.89
308741,-0.7185,-0.6331,-0.0989,-1.8931,0.9237,-1.3817,48.53,48.27,-98.88
309241,-0.7151,-0.6685,-0.0940,-2.2137,1.2977,-1.4198,48.44,46.65,-98.00
309741,-0.7266,-0.6660,-0.0833,-2.3282,0.8015,-0.9771,48.48,47.27,-97.13
310241,-0.7185,-0.6702,-0.0930,-2.4275,1.2519,-1.4198,48.62,46.72,-97.90
310741,-0.7053,-0.6724,-0.0872,-2.2214,1.3817,-1.1603,48.44,46.13,-97.39
311241,-0.7268,-0.6489,-0.1001,-2.1374,0.9542,-1.9313,48.44,47.91,-98.77
311741,-0.6763,-0.7002,-0.0715,-2.6870,2.1756,-0.9160,48.62,43.86,-95.83
312241,-0.7556,-0.6455,-0.1074,-2.4580,2.0153,-1.7176,48.67,49.11,-99.45
312741,-0.7122,-0.6660,-0.0991,-2.4885,0.7099,-0.6183,48.48,46.60,-98.47
313241,-0.7266,-0.6523,-0.0837,-1.3969,-0.2824,-2.3053,48.34,47.85,-97.31
313741,-0.7122,-0.6794,-0.1055,-2.7328,1.7023,-0.9160,48.67,46.01,-98.82
314241,-0.7163,-0.6636,-0.1016,-2.5802,0.3282,-0.5954,48.44,46.86,-98.70
314741,-0.7178,-0.6704,-0.0903,-2.1221,2.6718,-1.4046,48.48,46.70,-97.67
315241,-0.7036,-0.6606,-0.0964,-2.1756,0.1298,-1.2519,48.34,46.50,-98.30
315741,-0.7224,-0.6726,-0.0972,-2.0000,-0.2214,-0.9008,48.44,46.75,-98.22
316241,-0.7175,-0.6748,-0.0847,-2.7634,2.0153,-1.1832,48.34,46.53,-97.16
316741,-0.7117,-0.6643,-0.0967,-2.3282,0.9008,-1.0534,48.53,46.67,-98.28
317241,-0.7168,-0.6670,-0.0974,-2.4122,0.4580,-1.0534,48.48,46.76,-98.31
317741,-0.7200,-0.6641,-0.0952,-2.4656,1.0000,-0.9924,48.44,47.02,-98.16
318241,-0.7200,-0.6633,-0.0964,-2.4351,0.6641,-0.9771,48.29,47.05,-98.27
318741,-0.7214,-0.6665,-0.0955,-2.6718,1.1603,-0.9695,48.34,46.98,-98.15
319241,-0.7197,-0.6675,-0.0908,-2.4122,0.9237,-0.8550,48.44,46.89,-97.75
319741,-0.7295,-0.6667,-0.1060,-2.4885,1.5115,-1.3664,48.29,47.22,-99.03
320241,-0.7178,-0.6670,-0.0896,-1.6641,-0.1603,-1.1221,48.62,46.84,-97.65
320741,-0.7295,-0.6638,-0.0862,-2.2366,1.3588,-1.5267,48.34,47.46,-97.40
321241,-0.7085,-0.6677,-0.0896,-2.4733,1.3969,-1.2214,48.44,46.44,-97.64
321741,-0.7056,-0.6680,-0.0940,-2.2595,0.8702,-1.0382,48.48,46.29,-98.01
322241,-0.7229,-0.6680,-0.0854,-2.2595,0.6107,-0.8779,48.53,47.03,-97.29
322741,-0.7166,-0.6628,-0.1028,-2.3817,0.8321,-1.1374,48.48,46.89,-98.81
323241,-0.7246,-0.6707,-0.0930,-2.7939,1.4427,-0.9237,48.53,46.94,-97.90
323741,-0.7634,-0.6865,-0.0947,-3.1756,1.6947,-3.0916,48.67,47.77,-97.86
324241,-0.7219,-0.6445,-0.0894,-1.7786,1.3511,-2.6107,48.53,47.97,-97.89
324741,-0.6929,-0.6724,-0.0918,-3.0229,3.0076,-1.1603,48.29,45.60,-97.77
325241,-0.7075,-0.6621,-0.0996,-2.2214,0.6336,-1.2901,48.48,46.58,-98.56
325741,-0.7173,-0.6687,-0.0833,-2.6641,0.4962,-0.8550,48.53,46.79,-97.10
326241,-0.7158,-0.6870,-0.0999,-2.7252,1.4580,-0.1985,48.48,45.88,-98.27
326741,-0.6968,-0.6453,-0.0942,-2.6412,1.3359,-1.1298,48.44,46.90,-98.31
327241,-0.7239,-0.6716,-0.0876,-2.1450,0.4122,-0.8397,48.44,46.90,-97.43
327741,-0.7158,-0.6648,-0.1011,-1.7099,1.5954,-1.5649,48.44,46.79,-98.64
328241,-0.7124,-0.6575,-0.1094,-3.5038,0.1145,-0.7710,48.62,46.91,-99.45
328741,-0.7126,-0.6692,-0.0920,-2.6489,0.7939,-0.6031,48.72,46.53,-97.83
329241,-0.7173,-0.6694,-0.1001,-2.3664,1.1832,-0.8626,48.48,46.66,-98.50
329741,-0.7180,-0.7051,-0.1028,-2.3740,2.0687,-0.9084,48.29,45.22,-98.29
330241,-0.7188,-0.6697,-0.0972,-2.8015,1.0763,-0.9313,48.44,46.73,-98.26
330741,-0.7156,-0.6650,-0.0959,-2.6336,1.0992,-0.8626,48.48,46.80,-98.21
331241,-0.6877,-0.6655,-0.0942,-2.3511,1.4809,-1.6718,48.48,45.66,-98.06
331741,-0.7231,-0.6714,-0.1011,-2.8092,1.2672,-1.0534,48.48,46.81,-98.56
332241,-0.7163,-0.6682,-0.1045,-2.7557,0.9771,0.4122,48.29,46.64,-98.89
332741,-0.7148,-0.6719,-0.0964,-2.3969,1.2137,-1.2214,48.29,46.48,-98.17
333241,-0.7080,-0.6731,-0.1047,-2.7863,0.4809,-0.3282,48.34,46.11,-98.84
333741,-0.7280,-0.6726,-0.0981,-1.8931,0.6641,-1.5191,48.67,46.96,-98.30
334241,-0.7163,-0.6709,-0.0967,-2.4046,1.5191,-1.0840,48.48,46.58,-98.20
334741,-0.7166,-0.6685,-0.0989,-2.5573,0.9847,-1.3969,48.34,46.68,-98.41
335241,-0.7051,-0.6560,-0.0977,-2.1450,1.2443,-1.1069,48.34,46.75,-98.47
335741,-0.7063,-0.6580,-0.1067,-3.1450,0.2061,-1.0153,48.44,46.66,-99.21
336241,-0.7163,-0.6660,-0.0955,-2.3664,0.1221,-1.0534,48.62,46.79,-98.16
336741,-0.7246,-0.6704,-0.0955,-2.4733,1.3740,-1.3969,48.44,46.94,-98.10
337241,-0.7144,-0.6748,-0.0884,-2.1908,1.1450,-1.1527,48.48,46.39,-97.46
337741,-0.7087,-0.6624,-0.1001,-2.4962,1.8931,-1.2519,48.48,46.61,-98.59
338241,-0.7314,-0.6677,-0.0940,-2.0534,0.5954,-1.6870,48.48,47.33,-98.01
338741,-0.7080,-0.6658,-0.0964,-2.4046,0.8550,-0.5573,48.34,46.46,-98.24
339241,-0.7300,-0.6663,-0.1035,-3.3206,1.1450,-0.8702,48.29,47.27,-98.83
339741,-0.6877,-0.6616,-0.0923,-2.4809,2.3053,-1.0229,48.53,45.83,-97.94
340241,-0.6807,-0.6785,-0.0808,-3.2901,3.3740,-1.0840,48.62,44.89,-96.79
340741,-0.6960,-0.6555,-0.1133,-2.5267,0.5267,-0.9084,48.34,46.30,-99.80
341241,-0.7251,-0.6765,-0.0967,-2.7252,0.9084,-1.5038,48.53,46.70,-98.13
341741,-0.7114,-0.6604,-0.1101,-2.3511,0.0992,-1.2748,48.44,46.74,-99.47
342241,-0.7209,-0.6909,-0.0908,-2.2366,1.5954,0.0687,48.44,45.97,-97.49
342741,-0.7236,-0.6682,-0.0999,-2.2901,-0.2137,-0.9618,48.44,46.96,-98.50
343241,-0.7227,-0.6753,-0.0803,-1.7481,0.1832,-2.0153,48.48,46.74,-96.78
343741,-0.7307,-0.6768,-0.0974,-2.7328,1.3130,-0.8092,48.48,46.90,-98.19
344241,-0.7024,-0.6609,-0.0925,-1.8626,1.3282,-1.3206,48.20,46.47,-97.97
344741,-0.6831,-0.6631,-0.1125,-3.0382,0.9771,-0.0076,48.29,45.45,-99.63
345241,-0.6067,-0.5090,-0.0796,-0.8092,-1.0534,-0.8931,48.48,49.66,-98.89
345741,-0.7412,-0.6292,-0.1064,-4.2214,0.4427,3.2824,48.20,49.28,-99.60
346241,-0.7598,-0.6707,-0.0916,-2.2214,-0.8092,-1.1069,48.20,48.30,-97.77
346741,-0.7212,-0.6667,-0.0957,-2.3130,0.8473,-1.0229,48.53,46.96,-98.17
347241,-0.7112,-0.6550,-0.1062,-2.6870,1.4351,-1.2137,48.44,46.98,-99.21
347741,-0.7129,-0.6680,-0.0933,-2.5649,0.7557,-0.9542,48.34,46.59,-97.95
348241,-0.7214,-0.6592,-0.0972,-2.3817,1.1527,-1.3435,48.53,47.28,-98.39
348741,-0.7102,-0.6638,-0.0984,-1.9924,0.3282,-1.0000,48.48,46.62,-98.43
349241,-0.7249,-0.6699,-0.0940,-2.6412,0.6794,-1.0763,48.48,46.98,-97.99
349741,-0.7161,-0.6638,-0.0986,-2.5725,1.2443,-1.1985,48.48,46.86,-98.45
350241,-0.7180,-0.6628,-0.1023,-2.4656,0.8626,-0.7405,48.48,46.95,-98.77
350741,-0.7275,-0.6675,-0.0947,-2.4962,1.0534,-1.3282,48.29,47.18,-98.08
351241,-0.7175,-0.6646,-0.1023,-2.6412,1.4656,-1.0076,48.53,46.86,-98.75
351741,-0.7192,-0.6711,-0.0940,-2.3740,0.5496,-0.7710,48.44,46.70,-97.97
352241,-0.7019,-0.6641,-0.1006,-2.6183,1.7481,-1.0992,48.48,46.26,-98.61
352741,-0.7202,-0.6724,-0.0930,-2.2824,0.7099,-1.0458,48.48,46.70,-97.88
353241,-0.7161,-0.6682,-0.1050,-2.7634,1.0305,-0.7557,48.34,46.63,-98.93
353741,-0.6995,-0.6738,-0.0952,-2.7099,1.0534,-0.4885,48.48,45.79,-98.04
354241,-0.7131,-0.6606,-0.1057,-2.2443,0.5267,-0.9313,48.44,46.83,-99.09
354741,-0.7444,-0.6108,-0.0996,-3.7176,-1.5420,2.4198,48.20,50.26,-99.26
355241,-0.7319,-0.6521,-0.1187,-3.3435,1.8473,-1.1908,48.48,47.84,-100.31
355741,-0.7168,-0.6538,-0.0967,-2.5267,0.9466,-0.7939,48.29,47.32,-98.41
356241,-0.7288,-0.6372,-0.1096,-1.9084,0.9389,-0.7710,48.44,48.42,-99.76
356741,-0.7378,-0.6379,-0.1064,-2.2519,1.0153,-1.1908,48.44,48.76,-99.47
357241,-0.7263,-0.6418,-0.0945,-2.0611,0.6336,-1.0076,48.62,48.23,-98.37
357741,-0.7354,-0.6389,-0.1108,-2.3740,1.0153,-1.3435,48.62,48.59,-99.84
358241,-0.7278,-0.6436,-0.1067,-2.8168,1.1527,-1.4580,48.48,48.13,-99.41
358741,-0.7295,-0.6418,-0.1177,-2.2366,0.8397,-1.1145,48.44,48.19,-100.39
359241,-0.7341,-0.6436,-0.1047,-2.6183,0.6641,-0.8321,48.29,48.39,-99.24
359741,-0.7227,-0.6433,-0.1030,-2.4580,0.7405,-0.9695,48.44,47.96,-99.10
360241,-0.7271,-0.6411,-0.1089,-2.1756,0.9618,-1.2290,48.44,48.19,-99.64
360741,-0.7305,-0.6382,-0.1057,-2.5954,0.8092,-0.8702,48.44,48.47,-99.41
361241,-0.7278,-0.6392,-0.1094,-2.7405,1.0763,-1.2061,48.48,48.30,-99.71
361741,-0.7385,-0.6494,-0.1084,-2.6947,0.8550,-1.2595,48.48,48.28,-99.48
362241,-0.7271,-0.6436,-0.1113,-2.4427,1.3282,-0.8397,48.29,48.07,-99.81
362741,-0.7253,-0.6426,-0.1086,-2.4504,1.1679,-1.4580,48.44,48.06,-99.60
363241,-0.7412,-0.6479,-0.1016,-2.8550,1.2290,-1.3969,48.15,48.50,-98.91
363741,-0.7300,-0.6323,-0.1116,-2.2977,2.0229,-0.0687,48.20,48.67,-100.01
364241,-0.7432,-0.6448,-0.1108,-2.1679,0.7710,-0.9008,48.44,48.64,-99.75
364741,-0.7407,-0.6345,-0.1089,-2.6183,1.1221,-1.4580,48.53,49.00,-99.74
365241,-0.7383,-0.6367,-0.1050,-1.9313,0.3282,-1.1832,48.44,48.84,-99.36
365741,-0.7454,-0.6531,-0.1084,-2.2061,0.6565,-1.1679,48.29,48.39,-99.42
366241,-0.7273,-0.6465,-0.0964,-1.8015,1.0763,-1.5038,48.44,48.05,-98.48
366741,-0.7424,-0.6389,-0.1094,-2.9847,1.0000,-1.1756,48.20,48.88,-99.71
367241,-0.7214,-0.6331,-0.1084,-2.5954,0.1603,-1.9389,48.20,48.32,-99.72
367741,-0.7393,-0.6416,-0.1099,-2.4427,0.3893,-0.3435,48.53,48.64,-99.72
368241,-0.7197,-0.6321,-0.1228,-3.6565,2.7786,-1.5649,48.62,48.18,-100.99
368741,-0.7456,-0.6277,-0.1157,-1.6947,0.4504,-1.1756,48.20,49.44,-100.45
369241,-0.7266,-0.6321,-0.1255,-1.9313,0.6794,-1.1908,48.29,48.43,-101.23
369741,-0.7158,-0.6440,-0.1035,-3.1221,0.9466,-0.6794,48.44,47.66,-99.13
370241,-0.7136,-0.6345,-0.1052,-1.4198,0.6794,-1.7405,48.44,47.97,-99.42
370741,-0.7517,-0.6655,-0.1177,-2.9695,1.7405,0.6031,48.48,48.04,-100.03
371241,-0.7576,-0.6511,-0.0967,-2.3359,1.2595,-1.4580,48.48,49.01,-98.45
371741,-0.7217,-0.6411,-0.1235,-1.9771,0.9237,-1.0687,48.29,47.86,-100.91
372241,-0.7437,-0.6450,-0.1145,-2.3664,1.1832,-0.7634,48.48,48.62,-100.07
372741,-0.7344,-0.6411,-0.1099,-2.4504,1.0763,-1.1069,48.48,48.47,-99.72
373241,-0.7258,-0.6333,-0.1108,-2.8473,1.2443,-1.0611,48.34,48.47,-99.93
373741,-0.7424,-0.6489,-0.1113,-1.8626,0.9771,-1.7252,48.44,48.43,-99.73
374241,-0.7285,-0.6492,-0.0967,-3.2672,1.1298,-0.4809,48.48,47.98,-98.47
374741,-0.7322,-0.6399,-0.1147,-2.4198,1.5573,-0.9771,48.34,48.40,-100.17
375241,-0.7429,-0.6321,-0.1035,-1.8473,0.7939,0.2290,48.44,49.23,-99.30
375741,-0.7483,-0.6467,-0.1101,-2.4885,0.8397,-0.5267,48.34,48.76,-99.66
376241,-0.7153,-0.6494,-0.1416,-1.5649,-0.5267,2.8092,48.48,47.10,-102.30
376741,-0.7568,-0.6304,-0.1353,-3.1298,2.1527,-2.0458,48.44,49.57,-102.11
377241,-0.7283,-0.6479,-0.1182,-2.9695,1.7939,-1.5038,48.44,47.87,-100.34
377741,-0.7144,-0.6462,-0.1074,-2.5344,0.8855,-1.2290,48.20,47.48,-99.44
378241,-0.7285,-0.6382,-0.1125,-1.9084,0.5496,-0.5191,48.44,48.35,-100.00
378741,-0.7458,-0.6421,-0.1130,-2.1603,0.7481,-0.9389,48.20,48.84,-99.98
379241,-0.7122,-0.6345,-0.1418,-2.7328,0.9542,-0.2901,48.20,47.60,-102.60
379741,-0.7217,-0.6389,-0.1091,-2.4733,1.1374,-1.5954,48.48,48.07,-99.69
380241,-0.7236,-0.6399,-0.0950,-3.0076,1.1374,-1.6336,48.29,48.20,-98.44
380741,-0.7268,-0.6492,-0.1072,-3.0840,1.1832,-0.8855,48.11,47.85,-99.37
381241,-0.7107,-0.6497,-0.1052,-2.5191,1.9313,-1.4580,48.48,47.20,-99.20
381741,-0.7268,-0.6484,-0.1069,-1.7634,0.2061,-0.7328,48.11,47.88,-99.36
382241,-0.7546,-0.6501,-0.1418,-2.8397,2.1069,-1.5725,48.20,48.59,-102.31
382741,-0.7466,-0.6523,-0.1106,-2.8779,1.9466,-1.2824,48.29,48.45,-99.62
383241,-0.7239,-0.6064,-0.0935,-2.5115,0.7099,-1.6947,48.34,49.71,-98.77
383741,-0.7058,-0.6511,-0.1143,-2.7405,1.0076,-1.6107,48.29,46.87,-99.95
384241,-0.7227,-0.6431,-0.1196,-1.9008,1.4275,-0.1527,48.29,47.85,-100.54
384741,-0.7451,-0.6528,-0.1104,-2.2748,1.3282,-0.9847,48.20,48.38,-99.59
385241,-0.7239,-0.6372,-0.1279,-1.9924,0.3893,-0.1603,48.44,48.08,-101.35
385741,-0.7119,-0.6389,-0.1125,-2.8321,0.6870,-1.5267,48.48,47.66,-99.99
386241,-0.7424,-0.6440,-0.1006,-2.0763,0.9084,-0.6031,48.48,48.72,-98.88
386741,-0.7371,-0.6501,-0.1184,-2.4275,0.9389,-1.1527,48.11,48.12,-100.32
387241,-0.7354,-0.6416,-0.1113,-2.6336,1.1527,-1.0916,48.48,48.47,-99.84
387741,-0.7219,-0.6567,-0.1333,-3.3359,1.0000,-0.2977,48.34,47.13,-101.47
388241,-0.7117,-0.6416,-0.1165,-2.2366,2.1756,-0.7099,48.29,47.50,-100.29
388741,-0.6248,-0.5891,-0.1455,-1.2672,-0.7481,-0.1679,48.20,45.83,-103.87
389241,-0.7410,-0.6216,-0.1399,-2.2214,0.5725,-0.9237,48.15,49.31,-102.68
389741,-0.7585,-0.6450,-0.1013,-2.6107,1.3969,-1.0382,48.48,49.28,-98.93
390241,-0.7332,-0.6414,-0.1248,-2.3740,0.4504,-0.8855,48.29,48.29,-101.01
390741,-0.7249,-0.6357,-0.1157,-3.4046,0.2977,-1.0076,48.34,48.28,-100.32
391241,-0.7566,-0.6514,-0.0959,-2.2672,0.6489,-0.9237,48.48,48.97,-98.38
391741,-0.7456,-0.6443,-0.1208,-2.9008,1.2061,-1.2595,48.29,48.68,-100.62
392241,-0.7268,-0.6367,-0.1191,-2.6489,1.3282,-1.3359,48.29,48.29,-100.60
392741,-0.7209,-0.6494,-0.1064,-2.2519,1.4809,-1.5344,48.29,47.61,-99.31
393241,-0.7261,-0.6372,-0.1157,-2.5954,1.2366,-1.4122,48.44,48.27,-100.29
393741,-0.7295,-0.6426,-0.1157,-2.5573,0.9771,-1.2595,48.29,48.17,-100.21
394241,-0.7334,-0.6399,-0.1221,-2.5496,0.8626,-0.7176,48.34,48.39,-100.80
394741,-0.7346,-0.6401,-0.1067,-2.5725,1.1832,-1.0687,48.29,48.54,-99.46
395241,-0.7195,-0.6421,-0.1206,-3.4275,0.6718,-0.3206,48.44,47.76,-100.64
395741,-0.7368,-0.6396,-0.1157,-2.1527,0.4427,-0.7710,48.15,48.58,-100.25
396241,-0.7646,-0.6611,-0.1311,-3.7863,1.3359,-0.3664,48.48,48.61,-101.22
396741,-0.7656,-0.6262,-0.0972,-2.3893,-0.4504,-1.0992,48.11,50.39,-98.82
397241,-0.7393,-0.6406,-0.1172,-2.3817,1.2443,-1.2443,48.29,48.62,-100.37
397741,-0.7302,-0.6389,-0.1106,-2.4733,1.1374,-1.1832,48.29,48.40,-99.82
398241,-0.7283,-0.6445,-0.1196,-2.3588,1.0382,-0.9695,48.29,48.01,-100.51
398741,-0.7231,-0.6360,-0.1157,-2.5038,1.1221,-0.8779,48.20,48.21,-100.31
399241,-0.6958,-0.6602,-0.0994,-2.4427,2.6641,-2.5954,48.48,46.19,-98.56
399741,-0.7112,-0.6272,-0.1104,-2.5420,1.3435,-1.2137,48.29,48.16,-99.98
400241,-0.7346,-0.6423,-0.1096,-2.5954,0.8855,-0.7405,48.20,48.43,-99.68
400741,-0.7307,-0.6438,-0.1147,-2.1908,1.1069,-0.9160,48.44,48.17,-100.11
401241,-0.7346,-0.6594,-0.1091,-2.7405,0.9160,-0.8702,48.44,47.70,-99.40
401741,-0.7351,-0.6570,-0.1072,-3.7710,0.7481,-0.8473,48.44,47.84,-99.27
402241,-0.7283,-0.6365,-0.1099,-2.7786,0.5420,-0.9924,48.48,48.43,-99.79
402741,-0.7385,-0.6384,-0.1177,-1.8473,0.2595,-0.6107,48.48,48.68,-100.44
403241,-0.7219,-0.6548,-0.1267,-1.3130,3.2214,-0.8779,48.34,47.27,-100.95
403741,-0.7207,-0.6375,-0.1169,-2.2977,0.9160,-0.8550,48.44,48.04,-100.40
404241,-0.7292,-0.6372,-0.1167,-2.5344,1.1221,-1.0534,48.48,48.38,-100.38
404741,-0.7253,-0.6421,-0.1191,-2.5878,1.0382,-0.9466,48.15,48.00,-100.51
405241,-0.7209,-0.6384,-0.1255,-2.7710,1.1298,-0.9389,48.15,47.93,-101.12
405741,-0.7373,-0.6431,-0.1113,-2.5267,0.6870,-1.0534,48.48,48.49,-99.82
406241,-0.7332,-0.6431,-0.1162,-2.5038,1.1221,-0.9771,48.11,48.29,-100.24
406741,-0.7290,-0.6455,-0.1106,-2.4580,1.0840,-1.2519,48.20,48.06,-99.72
407241,-0.7295,-0.6423,-0.1091,-2.5802,0.9160,-1.1908,48.34,48.23,-99.64
407741,-0.7307,-0.6438,-0.1157,-2.3893,0.8702,-1.0458,48.15,48.17,-100.19
408241,-0.7300,-0.6467,-0.1167,-2.2824,1.2366,-0.8779,48.34,48.00,-100.23
408741,-0.7385,-0.6475,-0.1079,-2.2519,1.0382,-1.0153,48.15,48.37,-99.46
409241,-0.7275,-0.6392,-0.1094,-2.7557,1.0992,-1.2901,48.44,48.29,-99.71
409741,-0.7251,-0.6440,-0.1133,-2.6565,1.1069,-1.2214,48.15,47.95,-99.98
410241,-0.7283,-0.6387,-0.1150,-2.6183,1.0992,-0.9771,48.48,48.30,-100.21
410741,-0.7327,-0.6387,-0.1064,-2.2595,0.9771,-1.0076,48.44,48.53,-99.46
411241,-0.7358,-0.6460,-0.1096,-2.4198,1.1908,-0.8244,48.11,48.32,-99.63
411741,-0.7334,-0.6389,-0.1150,-2.7252,1.2519,-0.9313,48.34,48.49,-100.20
412241,-0.7314,-0.6394,-0.1201,-2.5344,1.1374,-1.0992,48.44,48.35,-100.64
412741,-0.7290,-0.6421,-0.1108,-2.6107,1.2824,-1.2824,48.44,48.21,-99.79
413241,-0.7314,-0.6462,-0.1130,-2.2214,1.2366,-1.0229,48.34,48.11,-99.92
413741,-0.7378,-0.6362,-0.0991,-2.3740,1.2519,-1.3053,48.34,48.89,-98.86
414241,-0.7332,-0.6404,-0.1111,-2.3359,1.0534,-0.8931,48.34,48.44,-99.84
414741,-0.7371,-0.6526,-0.1030,-2.8931,1.0305,-1.1756,48.29,48.13,-98.97
415241,-0.7202,-0.6394,-0.1135,-2.5954,0.8473,-1.2672,48.29,47.96,-100.07
415741,-0.7256,-0.6245,-0.1309,-3.3511,0.3740,-1.4885,48.20,48.67,-101.83
416241,-0.7305,-0.6521,-0.1079,-2.5954,1.0992,-1.2443,48.11,47.86,-99.40
416741,-0.7278,-0.6487,-0.1074,-2.4427,0.6260,-1.1756,48.48,47.90,-99.40
417241,-0.7307,-0.6367,-0.1135,-2.5725,1.1985,-0.9771,48.29,48.49,-100.11
417741,-0.7266,-0.6482,-0.1116,-2.5725,1.0382,-1.3588,48.34,47.85,-99.77
418241,-0.7324,-0.6440,-0.1086,-2.5802,1.1679,-1.1603,48.34,48.27,-99.57
418741,-0.7339,-0.6416,-0.1162,-2.3893,1.1679,-1.0382,48.29,48.38,-100.27
419241,-0.7290,-0.6394,-0.1189,-2.5420,0.9847,-0.9389,48.44,48.26,-100.53
419741,-0.7327,-0.6458,-0.1111,-2.2977,1.1832,-0.9084,48.11,48.19,-99.76
420241,-0.7339,-0.6428,-0.1121,-2.6260,1.1985,-0.9618,48.20,48.36,-99.89
420741,-0.7278,-0.6428,-0.1123,-2.6489,0.8626,-0.8779,48.01,48.12,-99.91
421241,-0.7332,-0.6462,-0.1140,-2.7176,1.2443,-1.2290,48.11,48.17,-100.01
421741,-0.7366,-0.6450,-0.1157,-2.2061,0.7099,-0.6947,48.11,48.34,-100.17
422241,-0.7380,-0.6418,-0.1184,-2.3435,0.8931,-1.2366,48.11,48.51,-100.45
422741,-0.7280,-0.6499,-0.1111,-3.0000,1.3511,-1.2672,48.34,47.83,-99.70
423241,-0.7319,-0.6355,-0.1230,-2.2672,0.8321,-1.1145,48.20,48.51,-100.96
423741,-0.7280,-0.6401,-0.1106,-2.3282,1.0000,-1.0992,48.29,48.26,-99.80
424241,-0.7349,-0.6455,-0.1167,-2.5344,0.9008,-0.9160,48.29,48.25,-100.25
424741,-0.7312,-0.6404,-0.1162,-2.4656,0.9542,-1.0534,48.20,48.33,-100.29
425241,-0.7371,-0.6458,-0.1160,-2.2901,1.0382,-1.1450,48.20,48.33,-100.18
425741,-0.7324,-0.6462,-0.1147,-2.6260,1.2748,-1.0382,48.48,48.14,-100.07
426241,-0.7319,-0.6458,-0.1165,-2.6183,1.3053,-1.2214,48.29,48.12,-100.22
426741,-0.7307,-0.6382,-0.1155,-2.5725,0.6641,-0.6489,48.34,48.41,-100.26
427241,-0.7241,-0.6355,-0.1133,-2.5802,1.6870,-1.3969,48.15,48.28,-100.11
427741,-0.7246,-0.6443,-0.1040,-2.5573,1.3511,-1.3053,48.29,47.99,-99.17
428241,-0.7334,-0.6375,-0.1533,-1.7939,1.5038,-0.3206,48.20,48.20,-103.52
428741,-0.7209,-0.6472,-0.0964,-2.9160,0.3893,-0.8397,48.15,47.77,-98.47
429241,-0.7339,-0.6414,-0.0945,-2.4122,0.7786,-1.6412,48.44,48.54,-98.38
429741,-0.7393,-0.6367,-0.1174,-2.4351,1.1298,-1.0534,48.15,48.79,-100.45
430241,-0.7483,-0.6895,-0.1172,-4.1450,1.0611,-0.2290,48.29,46.94,-99.65
430741,-0.7117,-0.6196,-0.1189,-2.7710,1.1908,-1.1756,48.44,48.44,-100.86
431241,-0.7156,-0.6426,-0.1116,-2.0687,0.7710,-0.5954,48.44,47.65,-99.85
431741,-0.7295,-0.6484,-0.1094,-2.3282,0.8015,-1.0611,48.44,47.97,-99.57
432241,-0.7354,-0.6421,-0.1226,-2.3511,0.8779,-0.9618,48.44,48.36,-100.81
432741,-0.7292,-0.6438,-0.1123,-2.2595,1.2290,-1.0840,48.01,48.13,-99.90
433241,-0.7278,-0.6399,-0.1118,-2.2672,0.9313,-1.0611,48.29,48.25,-99.91
433741,-0.7312,-0.6416,-0.1145,-2.6641,1.0305,-0.9542,48.44,48.29,-100.12
434241,-0.7285,-0.6389,-0.1152,-2.2519,1.1221,-0.8397,48.34,48.29,-100.22
434741,-0.7268,-0.6392,-0.1204,-2.5420,1.1832,-1.1069,48.34,48.18,-100.66
435241,-0.7344,-0.6414,-0.1135,-2.3053,1.0992,-0.8626,48.44,48.43,-100.04
435741,-0.7295,-0.6433,-0.1160,-2.4122,1.1145,-0.8244,48.44,48.14,-100.22
436241,-0.7336,-0.6406,-0.1064,-2.5573,1.1450,-1.0000,48.29,48.49,-99.43
436741,-0.7268,-0.6460,-0.1147,-2.3053,0.9237,-0.8092,48.29,47.93,-100.07
437241,-0.7273,-0.6411,-0.1104,-2.7786,1.2290,-1.0229,48.29,48.19,-99.77
437741,-0.7378,-0.6416,-0.1086,-2.5573,1.0382,-1.0992,48.11,48.59,-99.61
438241,-0.7329,-0.6426,-0.1094,-2.5420,0.9160,-0.7481,48.15,48.35,-99.66
438741,-0.7354,-0.6414,-0.1125,-2.3969,1.0076,-1.0992,48.11,48.47,-99.95
439241,-0.7302,-0.6404,-0.1165,-2.2977,1.4962,-0.7786,48.44,48.29,-100.31
439741,-0.7263,-0.6387,-0.1121,-2.4275,0.9771,-0.9389,48.29,48.24,-99.95
440241,-0.7361,-0.6294,-0.1013,-2.7786,0.6794,-1.2901,48.44,49.11,-99.14
440741,-0.7083,-0.6389,-0.1089,-3.2748,1.1527,-0.7939,48.44,47.54,-99.67
441241,-0.7393,-0.6350,-0.1125,-2.2061,0.8702,-1.2290,48.11,48.90,-100.05
441741,-0.7336,-0.6423,-0.1094,-2.9313,0.8397,-1.0382,48.29,48.39,-99.66
442241,-0.7278,-0.6453,-0.1128,-2.9313,0.8702,-1.2748,48.15,48.01,-99.92
442741,-0.7322,-0.6399,-0.1230,-2.4427,1.0763,-0.9771,48.11,48.33,-100.88
443241,-0.7395,-0.6394,-0.1038,-2.2290,0.5573,-0.7863,48.11,48.78,-99.22
443741,-0.7327,-0.6350,-0.1145,-2.1145,1.0153,-1.0611,48.15,48.63,-100.22
444241,-0.7097,-0.6511,-0.1262,-2.4885,1.3282,-0.1527,48.20,46.94,-100.97
444741,-0.7336,-0.6370,-0.1033,-2.1374,1.4351,-1.2748,48.29,48.67,-99.21
445241,-0.7271,-0.6343,-0.1191,-2.8626,1.4275,-0.9695,48.20,48.41,-100.64
445741,-0.7441,-0.6479,-0.1135,-2.4504,0.5954,-0.5649,48.29,48.52,-99.94
446241,-0.7241,-0.6448,-0.1167,-2.4733,1.1679,-1.2061,48.29,47.86,-100.26
446741,-0.7341,-0.6404,-0.1213,-2.5496,1.0382,-1.4427,48.29,48.40,-100.73
447241,-0.7329,-0.6428,-0.1106,-2.3511,1.0229,-1.1756,48.11,48.33,-99.76
447741,-0.7339,-0.6470,-0.1184,-2.1145,0.9160,-1.1145,48.11,48.13,-100.37
448241,-0.7283,-0.6389,-0.1169,-2.4962,1.0534,-1.0000,48.44,48.27,-100.37
448741,-0.7314,-0.6445,-0.1111,-2.3435,0.8931,-0.9237,48.20,48.20,-99.78
449241,-0.7388,-0.6428,-0.1104,-2.2672,0.8702,-0.5954,48.34,48.56,-99.74
449741,-0.7217,-0.6462,-0.1235,-2.0458,0.9695,-0.6489,48.29,47.65,-100.82
450241,-0.7378,-0.6438,-0.1106,-2.2901,1.0840,-1.0000,48.29,48.48,-99.75
450741,-0.7356,-0.6467,-0.1150,-2.4962,1.0076,-1.1603,48.44,48.24,-100.08
451241,-0.7339,-0.6382,-0.1196,-2.7252,0.7023,-0.7939,48.20,48.50,-100.62
451741,-0.7341,-0.6438,-0.1118,-2.6412,0.9771,-0.9084,48.44,48.33,-99.85
452241,-0.7385,-0.6399,-0.1155,-2.5802,1.0382,-0.9313,48.11,48.64,-100.23
452741,-0.7383,-0.6416,-0.1133,-2.6336,1.4046,-1.2672,48.20,48.57,-100.01
453241,-0.7102,-0.6418,-0.1118,-2.7557,1.0153,-1.5954,48.29,47.47,-99.88
453741,-0.7310,-0.6438,-0.1265,-2.3435,0.5344,-0.7405,48.11,48.09,-101.11
454241,-0.7322,-0.6431,-0.1008,-2.4580,1.4733,-1.0076,48.29,48.36,-98.91
454741,-0.7383,-0.6379,-0.1174,-2.5954,0.9924,-0.9160,48.15,48.70,-100.43
455241,-0.7327,-0.6399,-0.1091,-2.4962,1.1450,-0.8473,48.34,48.46,-99.68
455741,-0.7300,-0.6399,-0.1221,-2.4122,1.4809,-1.2519,48.34,48.25,-100.80
456241,-0.7300,-0.6431,-0.1140,-2.2443,0.8779,-1.0458,48.15,48.18,-100.05
456741,-0.7285,-0.6387,-0.1177,-2.6031,0.9542,-0.9618,48.48,48.29,-100.44
457241,-0.7417,-0.6438,-0.1157,-2.6260,1.0076,-1.0229,48.44,48.59,-100.19
457741,-0.7324,-0.6321,-0.1143,-2.7405,0.6183,-0.5038,48.20,48.75,-100.25
458241,-0.7356,-0.6392,-0.1160,-2.2977,0.8015,-0.9160,48.15,48.55,-100.28
458741,-0.7334,-0.6392,-0.1094,-2.5802,0.9008,-0.7634,48.01,48.52,-99.71
459241,-0.7361,-0.6414,-0.1125,-2.3130,1.1221,-1.1832,48.20,48.50,-99.95
459741,-0.7371,-0.6355,-0.1257,-2.3206,1.1679,-1.2137,48.34,48.69,-101.19
460241,-0.7366,-0.6404,-0.1045,-2.4580,0.6412,-1.0305,48.15,48.62,-99.27
460741,-0.7339,-0.6365,-0.1118,-2.2519,1.0687,-1.2748,48.11,48.63,-99.96
461241,-0.7317,-0.6431,-0.1172,-2.5038,0.7939,-1.1603,48.11,48.22,-100.33
461741,-0.7354,-0.6418,-0.1167,-2.6412,1.2595,-0.9313,48.20,48.42,-100.30
462241,-0.7332,-0.6423,-0.1045,-2.2214,1.0229,-1.1985,48.48,48.41,-99.24
462741,-0.7334,-0.6372,-0.1118,-2.1679,1.3435,-1.3511,48.44,48.58,-99.95
463241,-0.7397,-0.6362,-0.1074,-2.1221,0.5191,-0.6870,48.44,48.90,-99.58
463741,-0.7405,-0.6450,-0.1179,-2.2061,0.8168,-0.9313,48.11,48.47,-100.36
464241,-0.7290,-0.6377,-0.1169,-2.6183,1.3130,-1.3053,48.11,48.35,-100.39
464741,-0.7319,-0.6350,-0.1135,-2.4809,0.6031,-1.0076,48.11,48.61,-100.14
465241,-0.7275,-0.6448,-0.1179,-2.8168,1.1603,-1.3053,48.15,47.98,-100.36
465741,-0.7273,-0.6399,-0.1082,-2.8626,1.2443,-1.0305,48.11,48.26,-99.59
466241,-0.7366,-0.6440,-0.1113,-2.3588,1.0382,-0.9695,47.82,48.42,-99.81
466741,-0.7598,-0.6521,-0.1267,-2.5573,0.1756,-0.7405,48.34,48.84,-101.00
467241,-0.7485,-0.6370,-0.1118,-2.3817,1.2519,-1.5191,48.15,49.17,-99.96
467741,-0.7512,-0.6582,-0.1135,-2.9389,2.0076,-1.7099,48.15,48.36,-99.79
468241,-0.7361,-0.6401,-0.1218,-2.2595,0.8931,-0.7634,48.20,48.48,-100.78
468741,-0.7251,-0.6458,-0.1130,-2.3053,1.0305,-1.1832,48.20,47.88,-99.93
469241,-0.7222,-0.6423,-0.1245,-2.0992,0.8473,-1.2519,48.29,47.82,-100.97
469741,-0.6311,-0.6475,-0.1160,-1.6183,3.9008,-3.3359,48.11,43.81,-100.15
470241,-0.7214,-0.6301,-0.1421,-3.3130,2.2977,0.3740,48.15,48.16,-102.71
470741,-0.7332,-0.6560,-0.1033,-2.3664,0.6183,-0.5954,48.34,47.83,-98.95
471241,-0.7378,-0.6299,-0.1333,-2.6947,1.0229,-0.7557,48.15,48.89,-101.95
471741,-0.7297,-0.6482,-0.1050,-2.6107,1.1908,-1.2748,48.29,48.02,-99.20
472241,-0.7219,-0.6423,-0.1328,-1.4809,-0.9695,-1.9924,48.34,47.74,-101.68
472741,-0.7070,-0.6453,-0.1001,-4.1527,0.9695,0.3893,48.34,47.28,-98.82
473241,-0.7295,-0.6450,-0.1187,-1.6260,0.2214,-2.4580,48.34,48.04,-100.42
473741,-0.7344,-0.6567,-0.1121,-4.1069,4.3817,0.5573,48.15,47.79,-99.68
474241,-0.7314,-0.6362,-0.1257,-1.3053,-1.3511,-1.9313,48.20,48.44,-101.18
474741,-0.7319,-0.6387,-0.1287,-4.0763,3.1374,0.0382,48.20,48.33,-101.39
475241,-0.7354,-0.6270,-0.1460,-5.2595,1.3206,0.2824,48.11,48.80,-103.11
475741,-0.7429,-0.5374,-0.2136,-25.1603,-5.2901,46.7481,48.15,52.10,-111.68
476241,-0.7581,-0.5598,-0.1702,-5.5725,6.0000,0.4427,48.11,52.34,-106.91
476741,-0.7820,-0.5781,-0.1372,-2.2748,0.5496,-1.1374,48.29,52.77,-103.35
477241,-0.7759,-0.5757,-0.1411,-2.4962,0.9008,-1.1450,48.29,52.62,-103.77
477741,-0.7805,-0.5701,-0.1406,-2.3740,0.8321,-0.9771,48.20,53.05,-103.86
478241,-0.9397,-0.5259,-0.0288,16.6183,-12.2824,19.0992,48.11,60.73,-93.14
478741,-0.8113,-0.3489,-0.1577,9.4733,-2.2137,-38.5878,48.11,64.74,-114.33
479241,-0.9751,-0.2659,-0.2671,9.1603,11.2824,-24.9466,48.29,68.87,-135.13
479741,-0.8381,-0.4780,-0.1362,-1.6947,-0.1603,-3.3969,48.29,59.33,-105.91
480241,-0.8376,-0.4788,-0.1511,-2.5038,0.7710,-1.6947,47.97,59.06,-107.52
480741,-0.8323,-0.4722,-0.1506,-3.0611,2.0153,-0.5725,48.29,59.23,-107.69
481241,-0.8496,-0.4702,-0.1375,-2.4275,0.7557,-1.2443,48.11,60.03,-106.29
481741,-0.8306,-0.4802,-0.1433,-2.4046,1.1756,-1.4427,48.29,58.89,-106.62
482241,-0.8494,-0.4751,-0.1387,-2.3053,1.1832,-0.8855,48.11,59.77,-106.27
482741,-0.8223,-0.4868,-0.1433,-2.3817,1.1756,-1.2366,48.15,58.32,-106.40
483241,-0.8494,-0.4666,-0.1372,-2.4275,1.3893,-1.3740,48.15,60.21,-106.39
483741,-0.8347,-0.4768,-0.1418,-2.2137,0.3130,-0.5573,48.11,59.21,-106.57
484241,-0.8420,-0.4790,-0.1396,-2.9160,1.4885,-0.4656,48.11,59.35,-106.25
484741,-0.8499,-0.4678,-0.1292,-1.4809,-0.6107,-2.0534,48.29,60.27,-105.43
485241,-0.8020,-0.4788,-0.1450,-2.8015,0.6718,-1.0916,48.11,58.05,-106.85
485741,-0.8408,-0.4771,-0.1372,-2.3206,0.0916,-1.1450,48.29,59.44,-106.05
486241,-0.8311,-0.4761,-0.1462,-3.1985,1.8168,-0.2443,48.11,59.07,-107.08
486741,-0.8201,-0.4773,-0.1436,-2.7710,1.4885,-0.3969,47.97,58.71,-106.74
487241,-0.8542,-0.4670,-0.1316,-2.7710,1.2748,-0.7176,48.20,60.40,-105.74
487741,-0.8342,-0.4656,-0.1492,-1.7405,0.4733,-2.2977,48.34,59.63,-107.77
488241,-0.8396,-0.4619,-0.1487,-2.6412,1.7939,-1.6107,48.11,59.97,-107.84
488741,-0.8384,-0.4915,-0.1333,-2.0305,0.6107,-1.9237,48.11,58.73,-105.18
489241,-0.8406,-0.4800,-0.1477,-2.6947,1.4962,-1.1221,48.11,59.14,-107.10
489741,-0.8831,-0.4592,-0.1492,-2.9542,1.8855,-0.7405,48.29,61.33,-108.00
490241,-0.8362,-0.4851,-0.1343,-3.4046,2.2672,-0.0305,48.29,58.95,-105.47
490741,-0.8372,-0.4756,-0.1455,-2.1069,0.1908,-0.9466,48.15,59.29,-107.01
491241,-0.8425,-0.4753,-0.1494,-2.7634,1.3740,-1.0611,48.11,59.40,-107.45
491741,-0.8459,-0.4739,-0.1396,-2.1221,0.8473,-1.9160,48.20,59.72,-106.42
492241,-0.8467,-0.4778,-0.1392,-2.7405,1.6183,-0.9008,48.11,59.56,-106.24
492741,-0.8296,-0.4714,-0.1431,-2.3511,0.2748,-1.3969,47.97,59.30,-106.88
493241,-0.8342,-0.4734,-0.1436,-2.4427,1.2137,-1.2595,47.97,59.33,-106.87
493741,-0.8384,-0.4731,-0.1438,-2.3817,1.0534,-1.3435,48.20,59.47,-106.91
494241,-0.8413,-0.4712,-0.1487,-2.6412,1.4885,-0.3969,48.15,59.57,-107.51
494741,-0.8308,-0.5183,-0.0818,-4.7786,0.8397,-2.0611,48.11,57.72,-98.97
495241,-0.8398,-0.4778,-0.1511,-2.8244,1.0611,-0.7023,48.34,59.18,-107.55
495741,-0.8191,-0.4871,-0.1409,-2.2519,1.2290,-1.7405,48.11,58.24,-106.13
496241,-0.8428,-0.4641,-0.1423,-1.8626,0.0076,-2.7176,48.20,60.06,-107.05
496741,-0.8599,-0.4690,-0.1387,-2.3893,0.4580,-0.2290,48.01,60.37,-106.47
497241,-0.8308,-0.4766,-0.1562,-2.6031,1.2977,-0.6641,48.01,58.88,-108.15
497741,-0.8398,-0.4678,-0.1599,-2.3206,1.3282,-1.2366,48.20,59.52,-108.87
498241,-0.8425,-0.4788,-0.1426,-2.8092,1.6107,-1.8626,47.97,59.34,-106.58
498741,-0.8140,-0.4729,-0.1396,-2.1908,0.8779,-1.6641,48.20,58.79,-106.45
499241,-0.8345,-0.4683,-0.1477,-2.1450,1.1832,-1.7939,48.44,59.53,-107.51
499741,-0.8574,-0.4780,-0.1404,-3.0153,0.7328,-0.0992,48.11,59.84,-106.37
500241,-0.8293,-0.4714,-0.1372,-2.9847,1.7557,-0.8168,48.20,59.37,-106.23
500741,-0.8313,-0.4683,-0.1360,-2.1527,0.6565,-0.5038,48.20,59.61,-106.19
501241,-0.8438,-0.4766,-0.1414,-2.4427,0.9313,-0.7481,48.15,59.50,-106.52
501741,-0.8447,-0.4863,-0.1372,-2.8092,0.5878,0.0229,48.29,59.11,-105.76
502241,-0.8625,-0.4678,-0.1445,-1.9771,1.0229,-1.2137,48.20,60.42,-107.17
502741,-0.8386,-0.4819,-0.1387,-2.8244,1.2672,-1.2061,48.44,59.12,-106.05
503241,-0.8374,-0.4827,-0.1465,-2.0076,0.8168,-1.8168,48.11,58.94,-106.88
503741,-0.8384,-0.4832,-0.1414,-2.5344,1.0153,-1.1985,48.15,59.02,-106.31
504241,-0.8494,-0.4761,-0.1428,-2.4885,1.0916,-0.7863,48.11,59.66,-106.70
504741,-0.8389,-0.4797,-0.1428,-2.9618,1.0305,-2.0305,47.97,59.18,-106.58
505241,-0.8303,-0.4858,-0.1418,-2.6641,0.9542,-1.0992,47.97,58.64,-106.28
505741,-0.8489,-0.4944,-0.1396,-3.4046,1.1679,-0.2595,47.97,58.82,-105.77
506241,-0.8672,-0.4683,-0.1375,-2.2443,0.9695,-1.7023,47.92,60.63,-106.36
506741,-0.8245,-0.4878,-0.1448,-2.1298,1.0458,-1.5649,47.97,58.32,-106.53
507241,-0.7290,-0.4492,-0.1431,-1.6489,0.9008,-6.2290,48.29,57.11,-107.67
507741,-0.8157,-0.5225,-0.1746,-0.9847,2.3435,-4.1756,48.20,55.97,-108.48
508241,-0.8508,-0.4412,-0.1357,-3.0763,2.1374,-1.5420,48.20,61.52,-107.10
508741,-0.8701,-0.4714,-0.1545,-2.7023,1.7939,3.6260,48.29,60.31,-108.15
509241,-0.8213,-0.4727,-0.1487,-1.6565,2.0458,-5.1221,48.11,58.90,-107.46
509741,-0.8147,-0.4956,-0.1433,-2.2748,0.5725,-0.3664,48.20,57.66,-106.13
510241,-0.8542,-0.4639,-0.1450,-2.1145,0.6794,-1.9237,48.15,60.36,-107.36
510741,-0.8333,-0.4878,-0.1357,-2.5725,0.8702,-0.9466,48.29,58.71,-105.55
511241,-0.8359,-0.4768,-0.1545,-2.1908,0.6107,-1.2519,48.11,59.05,-107.96
511741,-0.8389,-0.4846,-0.1365,-2.4198,1.2214,-1.0534,48.11,59.03,-105.73
512241,-0.8511,-0.4805,-0.1421,-2.2137,0.6031,-2.0534,48.29,59.51,-106.47
512741,-0.8408,-0.4839,-0.1472,-2.6031,1.1145,-0.3511,48.01,58.97,-106.92
513241,-0.8486,-0.4697,-0.1401,-2.9542,1.2595,0.1374,48.15,59.99,-106.61
513741,-0.8184,-0.4746,-0.1455,-2.2672,0.7328,-1.2137,48.20,58.76,-107.04
514241,-0.7644,-0.4939,-0.1584,-1.6336,1.6489,-2.4885,48.20,55.84,-107.79
514741,-0.7988,-0.4880,-0.1479,-2.6489,0.9924,-0.8931,48.11,57.45,-106.86
515241,-0.8008,-0.4958,-0.1504,-2.2595,1.3588,-2.0382,48.20,57.09,-106.87
515741,-0.8367,-0.4780,-0.1460,-1.8092,-0.5802,-0.8168,48.20,59.15,-106.98
516241,-0.8511,-0.4563,-0.1499,-2.7710,1.7099,-1.4885,48.15,60.56,-108.19
516741,-0.7856,-0.4993,-0.1619,-3.0382,2.9542,-0.3817,48.11,56.26,-107.96
517241,-0.8528,-0.4885,-0.1382,-1.9008,0.4198,-2.6031,48.11,59.23,-105.79
517741,-0.8472,-0.4761,-0.1531,-2.4046,0.6947,-0.0229,47.97,59.45,-107.82
518241,-0.8086,-0.5039,-0.1453,-2.3206,0.2137,-0.9466,48.15,57.03,-106.08
518741,-0.7991,-0.4934,-0.1707,-2.1069,0.1374,0.2137,47.97,56.84,-109.08
519241,-0.8384,-0.4727,-0.1392,-2.0458,-0.0687,0.1527,48.29,59.56,-106.41
519741,-0.8616,-0.4636,-0.1421,-2.8321,2.0992,0.2214,48.20,60.63,-107.04
520241,-0.8357,-0.4773,-0.1453,-2.3282,0.1908,-0.8626,48.20,59.16,-106.93
520741,-0.8352,-0.4800,-0.1448,-2.6336,1.3053,-0.9924,48.15,59.03,-106.78
521241,-0.8318,-0.4817,-0.1509,-2.2061,1.0305,-0.4656,48.11,58.75,-107.39
521741,-0.8420,-0.4883,-0.1353,-2.2290,0.6412,-2.1985,47.92,58.96,-105.48
522241,-0.8379,-0.4885,-0.1501,-2.4504,0.9466,-0.3359,48.11,58.62,-107.08
522741,-0.8320,-0.4861,-0.1450,-2.3893,1.1221,-1.3435,48.01,58.63,-106.61
523241,-0.8333,-0.4863,-0.1458,-2.4809,0.8397,-0.7099,48.20,58.65,-106.68
523741,-0.8191,-0.4751,-0.1443,-2.3893,2.4046,-1.2366,48.15,58.78,-106.89
524241,-0.8284,-0.4937,-0.1392,-2.8626,0.8931,-1.0534,48.34,58.24,-105.74
524741,-0.8330,-0.4800,-0.1643,-2.4427,0.2901,-0.4122,47.97,58.66,-108.90
525241,-0.9121,-0.4907,-0.1531,-4.1069,4.3740,-4.2901,48.01,60.60,-107.32
525741,-0.8193,-0.5166,-0.1455,-2.6260,1.2137,-1.0458,48.20,56.77,-105.73
526241,-0.8142,-0.5027,-0.1553,-2.7176,0.6412,-0.9924,48.20,57.13,-107.17
526741,-0.8164,-0.5090,-0.1487,-2.0763,0.8244,-1.0992,48.20,56.99,-106.28
527241,-0.7742,-0.4673,-0.1587,-2.9237,2.2290,-1.1069,48.29,57.48,-108.76
527741,-0.7896,-0.5029,-0.1450,-2.7176,2.2824,-1.3435,48.01,56.46,-106.08
528241,-0.7583,-0.4839,-0.1282,-2.6107,0.3740,-1.2214,48.11,56.57,-104.84
528741,-0.8179,-0.5129,-0.1533,-2.5802,0.8168,-0.7481,48.15,56.79,-106.64
529241,-0.8179,-0.4998,-0.1584,-1.7481,0.5649,-0.9542,48.01,57.34,-107.59
529741,-0.8311,-0.5095,-0.1489,-2.6183,0.2595,-0.7939,48.20,57.43,-106.29
530241,-0.8162,-0.5078,-0.1433,-2.6412,0.5725,-1.1527,48.01,57.12,-105.76
530741,-0.8345,-0.5068,-0.1506,-2.3206,0.5954,-0.9008,48.11,57.64,-106.55
531241,-0.8052,-0.5032,-0.1543,-2.3969,1.0458,-1.0611,48.29,56.83,-107.05
531741,-0.8176,-0.5000,-0.1499,-2.4122,0.7481,-0.8779,48.20,57.45,-106.69
532241,-0.8174,-0.5144,-0.1516,-2.6031,1.3359,-0.7481,48.44,56.73,-106.42
532741,-0.8176,-0.5044,-0.1479,-2.0153,1.1145,-1.4504,48.11,57.26,-106.35
533241,-0.8347,-0.5105,-0.1450,-2.5496,1.1985,-0.9771,48.11,57.55,-105.86
533741,-0.8132,-0.4988,-0.1680,-3.1145,1.6641,-0.2824,48.20,57.09,-108.61
534241,-0.8088,-0.5332,-0.1445,-2.6794,2.6183,-0.0229,48.29,55.67,-105.17
534741,-0.8250,-0.5049,-0.1484,-2.6718,0.7405,-1.1527,48.15,57.47,-106.38
535241,-0.7998,-0.5164,-0.1526,-3.2366,-0.2137,-0.9847,48.01,56.05,-106.46
535741,-0.8245,-0.5056,-0.1521,-2.6947,0.9160,-0.8168,48.15,57.36,-106.74
536241,-0.8325,-0.5107,-0.1438,-2.5115,0.4275,-0.7557,48.44,57.49,-105.72
536741,-0.8279,-0.4966,-0.1484,-2.8015,1.1908,-0.9008,48.11,57.95,-106.64
537241,-0.8159,-0.5051,-0.1438,-2.2595,0.5954,-0.7176,48.34,57.23,-105.89
537741,-0.8291,-0.5034,-0.1487,-2.1908,0.6260,-0.8855,48.34,57.66,-106.45
538241,-0.8491,-0.5151,-0.1223,-2.8321,0.5191,-1.3130,48.01,58.05,-103.36
538741,-0.8330,-0.5034,-0.1509,-2.6412,1.0382,-1.2519,48.11,57.75,-106.68
539241,-0.8062,-0.5073,-0.1501,-2.2519,0.6565,-1.0763,48.15,56.72,-106.49
539741,-0.8169,-0.4990,-0.1565,-2.3282,1.1527,-1.0916,48.29,57.37,-107.41
540241,-0.8152,-0.5076,-0.1467,-2.0840,0.7710,-0.8702,48.15,57.05,-106.12
540741,-0.7908,-0.4880,-0.1335,-2.5115,1.7252,-1.7863,48.29,57.39,-105.30
541241,-0.8071,-0.5017,-0.1506,-2.6870,1.5344,-1.2977,48.34,57.02,-106.71
541741,-0.8159,-0.5044,-0.1523,-2.4962,1.2977,-1.1298,48.20,57.15,-106.81
542241,-0.8562,-0.4827,-0.1606,-3.2595,0.6794,-0.2595,48.15,59.28,-108.41
542741,-0.8132,-0.5076,-0.1636,-2.8244,1.0382,-1.1221,47.97,56.75,-107.86
543241,-0.8098,-0.4919,-0.1438,-2.6870,0.7328,-0.8626,48.11,57.67,-106.29
543741,-0.8198,-0.5164,-0.1570,-2.7252,1.7023,-1.1908,48.11,56.64,-106.91
544241,-0.8123,-0.5015,-0.1619,-1.7634,0.0076,-0.8397,48.11,57.03,-107.89
544741,-0.8313,-0.5007,-0.1458,-2.1221,0.3664,-1.2137,47.92,57.90,-106.23
545241,-0.8425,-0.5132,-0.1262,-2.4809,1.3893,-1.4656,47.97,57.90,-103.82
545741,-0.8157,-0.5044,-0.1497,-2.5725,1.4122,-1.0611,48.11,57.18,-106.53
546241,-0.8149,-0.5022,-0.1538,-2.6260,1.2443,-0.7710,48.29,57.20,-107.03
546741,-0.7988,-0.5100,-0.1619,-2.6336,1.2366,-0.5878,48.15,56.18,-107.61
547241,-0.8005,-0.5078,-0.1614,-2.1298,1.0000,-0.5954,48.11,56.35,-107.63
547741,-0.8232,-0.5098,-0.1472,-2.4962,0.9618,-1.0153,48.15,57.20,-106.11
548241,-0.8301,-0.5190,-0.1509,-2.6794,0.9389,-0.8397,47.82,56.93,-106.21
548741,-0.8237,-0.5059,-0.1345,-2.9542,2.0840,-0.9008,48.29,57.57,-104.89
549241,-0.8171,-0.5056,-0.1416,-2.5649,1.3893,-1.4733,47.97,57.28,-105.65
549741,-0.8149,-0.5093,-0.1616,-2.0305,1.0840,-1.0382,47.97,56.75,-107.61
550241,-0.8425,-0.5088,-0.1494,-2.1374,-0.1374,-0.9084,47.92,57.81,-106.37
550741,-0.8298,-0.5088,-0.1404,-3.4122,2.2672,-1.5420,48.29,57.54,-105.42
551241,-0.8103,-0.4976,-0.1628,-2.4351,1.4427,-1.0000,48.15,57.13,-108.12
551741,-0.8289,-0.5139,-0.1450,-2.2977,0.7405,-1.1145,48.11,57.21,-105.76
552241,-0.8291,-0.5017,-0.1479,-2.4580,1.1603,-1.2214,48.11,57.75,-106.43
552741,-0.8184,-0.5002,-0.1548,-2.8626,1.1374,-1.0382,48.44,57.39,-107.19
553241,-0.8240,-0.5095,-0.1499,-2.6641,1.3740,-1.0916,48.11,57.20,-106.39
553741,-0.8208,-0.5088,-0.1504,-2.2519,0.8702,-0.9313,48.15,57.12,-106.47
554241,-0.8108,-0.5103,-0.1614,-2.2824,1.4198,-0.9771,47.97,56.57,-107.55
554741,-0.8267,-0.5017,-0.1533,-2.9084,1.2595,-1.3588,48.11,57.60,-106.99
555241,-0.8176,-0.5049,-0.1460,-2.3664,1.3053,-1.0687,48.20,57.27,-106.13
555741,-0.8044,-0.4995,-0.1548,-1.9237,0.2443,-0.3282,48.01,56.97,-107.22
556241,-0.8450,-0.5032,-0.1289,-1.9466,-0.1908,-1.0763,48.11,58.42,-104.37
556741,-0.8252,-0.5090,-0.1484,-2.2672,0.6107,-0.8244,47.97,57.28,-106.26
557241,-0.8123,-0.5090,-0.1470,-2.6260,1.5344,-0.9237,48.11,56.88,-106.10
557741,-0.8247,-0.5054,-0.1458,-2.3359,0.9771,-0.8550,48.29,57.47,-106.09
558241,-0.8274,-0.5098,-0.1482,-2.4351,0.9008,-1.0382,48.11,57.32,-106.21
558741,-0.8223,-0.5054,-0.1416,-2.2290,0.8855,-1.4580,48.01,57.45,-105.65
559241,-0.8191,-0.4961,-0.1562,-2.3664,0.9466,-0.8321,48.11,57.58,-107.48
559741,-0.8184,-0.5020,-0.1460,-2.7023,1.5191,-1.1756,48.11,57.43,-106.22
560241,-0.8259,-0.5002,-0.1482,-2.1679,0.7786,-1.1527,48.11,57.72,-106.50
560741,-0.8191,-0.5000,-0.1528,-2.3053,1.0611,-1.1527,48.11,57.45,-107.00
561241,-0.8220,-0.5007,-0.1528,-2.4885,0.9313,-0.9924,48.20,57.51,-106.97
561741,-0.8132,-0.4983,-0.1533,-2.3359,0.9618,-1.0611,48.15,57.34,-107.10
562241,-0.8245,-0.5144,-0.1404,-2.9008,1.2214,-0.9313,47.82,57.11,-105.26
562741,-0.8352,-0.5054,-0.1636,-2.2672,0.7786,-1.0916,48.11,57.54,-107.94
563241,-0.8252,-0.5090,-0.1428,-2.6489,0.9847,-1.0382,48.11,57.35,-105.67
563741,-0.8267,-0.5049,-0.1501,-2.6794,1.2137,-1.0076,48.11,57.50,-106.56
564241,-0.8225,-0.5029,-0.1443,-2.1908,0.9313,-0.9008,48.11,57.54,-106.01
564741,-0.8203,-0.5005,-0.1472,-2.7328,1.1298,-1.0992,48.11,57.55,-106.39
565241,-0.8289,-0.5137,-0.1560,-2.6641,0.8855,-0.7634,48.15,57.07,-106.89
565741,-0.8413,-0.5127,-0.1311,-2.0153,0.5496,-1.3359,48.11,57.83,-104.34
566241,-0.8186,-0.5029,-0.1631,-2.7710,1.6183,-1.0382,48.44,57.14,-107.97
566741,-0.8159,-0.4907,-0.1426,-2.9466,1.5038,-0.8855,48.20,57.94,-106.20
567241,-0.8242,-0.5022,-0.1467,-2.4733,0.8092,-0.9008,48.01,57.59,-106.29
567741,-0.8147,-0.4880,-0.1418,-2.3435,-0.5344,-0.4885,48.11,58.04,-106.21
568241,-0.8196,-0.5032,-0.1685,-2.1679,0.6260,-1.2061,48.11,57.08,-108.51
568741,-0.8101,-0.4875,-0.1370,-2.9618,0.8702,-1.1298,48.15,57.99,-105.69
569241,-0.8313,-0.5039,-0.1348,-2.5802,0.9542,-1.1450,47.97,57.89,-104.97
569741,-0.8215,-0.4695,-0.1606,-1.8015,1.7099,-1.7176,47.97,58.87,-108.89
570241,-0.8203,-0.5125,-0.1433,-2.6489,1.4580,-0.9466,48.15,57.03,-105.62
570741,-0.8225,-0.5112,-0.1548,-2.5649,1.5115,-0.9542,48.15,57.00,-106.84
571241,-0.7888,-0.4966,-0.1609,-3.0611,1.2595,-0.3740,48.01,56.51,-107.95
571741,-0.8203,-0.5073,-0.1575,-1.9847,0.2366,-0.6336,48.11,57.07,-107.24
572241,-0.8259,-0.4998,-0.1453,-2.5115,2.2595,-1.8015,47.97,57.78,-106.21
572741,-0.8269,-0.5093,-0.1575,-3.2061,0.5038,-0.4656,48.15,57.19,-107.18
573241,-0.8328,-0.5137,-0.1384,-3.3435,-0.5649,-0.7481,48.15,57.43,-105.08
573741,-0.8621,-0.5432,-0.1396,-2.7863,-1.0687,-0.0076,48.01,56.95,-104.42
574241,-0.8223,-0.5068,-0.1497,-2.7557,1.4198,-0.8397,48.15,57.27,-106.45
574741,-0.8174,-0.4900,-0.1450,-1.8626,0.8931,-1.3435,48.11,57.99,-106.49
575241,-0.8340,-0.5085,-0.1423,-2.7634,1.1221,-0.7252,48.15,57.66,-105.64
575741,-0.8220,-0.5059,-0.1479,-2.3053,1.1298,-1.1832,48.15,57.33,-106.30
576241,-0.8215,-0.5002,-0.1624,-2.3664,1.2748,-0.8779,48.15,57.37,-107.98
576741,-0.8398,-0.5273,-0.1489,-3.3588,1.3435,-1.2595,47.92,56.88,-105.77
577241,-0.8340,-0.5078,-0.1592,-1.9695,0.0534,-1.0687,48.20,57.46,-107.40
577741,-0.8276,-0.5178,-0.1543,-2.5802,0.1985,-0.1908,48.11,56.86,-106.59
578241,-0.8145,-0.5137,-0.1538,-3.0916,1.6336,-0.9466,48.11,56.64,-106.67
578741,-0.7712,-0.4983,-0.1628,-1.6489,1.5038,-0.7939,48.11,55.80,-108.10
579241,-0.8433,-0.5100,-0.1558,-1.6947,0.3359,-0.7786,47.82,57.69,-106.98
579741,-0.8320,-0.5095,-0.1399,-2.4122,1.1832,-1.1679,48.01,57.58,-105.35
580241,-0.8218,-0.4968,-0.1489,-2.2672,1.3130,-1.4427,48.11,57.74,-106.69
580741,-0.8223,-0.5061,-0.1443,-2.6336,0.9389,-1.0076,47.97,57.38,-105.91
581241,-0.8208,-0.5095,-0.1633,-3.0153,1.8244,-0.7557,48.11,56.90,-107.77
581741,-0.8103,-0.5061,-0.1562,-2.7481,1.3359,-1.2290,48.11,56.83,-107.16
582241,-0.8127,-0.4941,-0.1501,-1.6260,0.5878,-1.3359,48.20,57.57,-106.90
582741,-0.8242,-0.5066,-0.1460,-2.5267,0.4122,-0.9313,48.20,57.40,-106.08
583241,-0.8201,-0.4985,-0.1511,-2.4504,0.9771,-1.0153,47.82,57.57,-106.86
583741,-0.8357,-0.5781,-0.1553,-2.4580,-0.2672,-0.8397,47.82,54.39,-105.03
584241,-0.8025,-0.5022,-0.1746,-2.2901,0.6641,-0.3435,47.97,56.47,-109.17
584741,-0.8367,-0.4741,-0.1509,-2.3740,-0.0992,-0.7710,47.97,59.26,-107.65
585241,-0.8176,-0.5105,-0.1599,-2.2214,0.3588,-0.7557,48.11,56.80,-107.39
585741,-0.8083,-0.5012,-0.1511,-2.1374,0.1450,-0.7939,48.15,57.07,-106.78
586241,-0.8372,-0.5020,-0.1548,-1.8702,-0.6794,-1.3969,48.11,57.89,-107.14
586741,-0.8240,-0.4802,-0.1487,1.8626,-8.8779,-3.5573,48.15,58.61,-107.20
587241,-0.8215,-0.4949,-0.1482,-3.2748,2.1985,-1.1756,48.01,57.84,-106.67
587741,-0.8088,-0.5142,-0.1460,-2.9542,1.7634,-1.0153,48.11,56.54,-105.85
588241,-0.8193,-0.5042,-0.1550,-2.2595,1.3206,-1.1603,48.11,57.23,-107.09
588741,-0.8076,-0.5166,-0.1484,-1.3359,1.2366,-1.1527,47.97,56.35,-106.03
589241,-0.8225,-0.5073,-0.1570,-2.2290,1.6412,-1.3664,48.01,57.15,-107.19
589741,-0.8030,-0.5012,-0.1570,-2.4122,0.7328,-1.0763,47.97,56.81,-107.39
590241,-0.8049,-0.5085,-0.1611,-2.3282,0.0763,-0.7481,48.29,56.47,-107.58
590741,-0.8215,-0.5071,-0.1484,-2.6947,0.9008,-1.1221,48.01,57.25,-106.32
591241,-0.8228,-0.5098,-0.1477,-2.4809,1.0382,-0.9695,48.11,57.18,-106.16
591741,-0.8401,-0.5095,-0.1404,-1.9160,0.4962,-1.0305,48.11,57.83,-105.40
592241,-0.8340,-0.5105,-0.1514,-2.5878,1.3359,-1.2519,48.11,57.44,-106.52
592741,-0.8093,-0.4980,-0.1536,-2.7939,1.4580,-1.3588,48.01,57.22,-107.14
593241,-0.7781,-0.4800,-0.1443,-1.4656,-0.3817,0.5038,48.11,57.21,-106.73
593741,-0.8086,-0.4956,-0.1616,-2.1069,0.7252,-0.9084,48.15,57.19,-108.06
594241,-0.8257,-0.4978,-0.1543,-2.5954,1.3817,-1.0840,48.01,57.74,-107.22
594741,-0.8088,-0.5032,-0.1531,-2.3817,1.3893,-1.1679,48.01,56.97,-106.92
595241,-0.8179,-0.5071,-0.1445,-2.7786,0.8626,-1.0611,47.78,57.19,-105.91
595741,-0.8206,-0.5046,-0.1489,-2.7481,0.9160,-1.0611,47.97,57.33,-106.44
596241,-0.8298,-0.5090,-0.1333,-2.3359,0.9237,-1.4198,48.01,57.62,-104.67
596741,-0.8530,-0.5063,-0.1504,-2.2519,0.6107,-1.0534,48.11,58.23,-106.54
597241,-0.8201,-0.5083,-0.1379,-2.9389,2.4198,-1.9160,48.29,57.29,-105.18
597741,-0.8232,-0.4885,-0.1653,-2.2214,-0.5725,-0.3588,48.11,57.93,-108.69
598241,-0.8269,-0.5100,-0.1550,-2.4733,0.8397,-1.0840,48.15,57.19,-106.91
598741,-0.8064,-0.5051,-0.1436,-2.5115,1.1298,-1.0000,48.11,56.93,-105.86
599241,-0.8313,-0.5037,-0.1489,-2.8321,0.6260,-0.7405,48.15,57.72,-106.47
599741,-0.8240,-0.5076,-0.1458,-2.5878,1.0763,-1.0000,47.97,57.34,-106.02
600241,-0.8281,-0.5046,-0.1609,-2.6260,0.5344,-0.6107,48.11,57.40,-107.68
600741,-0.8179,-0.5015,-0.1621,-2.9008,1.7023,-1.2137,48.11,57.20,-107.91
601241,-0.8169,-0.5112,-0.1523,-2.4580,0.7786,-0.8779,48.11,56.85,-106.59
601741,-0.8215,-0.5068,-0.1543,-2.6794,1.1985,-1.1374,48.11,57.18,-106.93
602241,-0.8191,-0.5066,-0.1523,-2.4733,1.1603,-1.1145,47.97,57.14,-106.74
602741,-0.8191,-0.5017,-0.1465,-2.2061,0.6412,-0.7557,48.11,57.46,-106.28
603241,-0.8218,-0.5056,-0.1594,-1.9847,-0.7176,-0.5267,47.97,57.17,-107.50
603741,-0.8210,-0.5039,-0.1548,-2.5420,1.2824,-0.8855,48.01,57.30,-107.08
604241,-0.8181,-0.5010,-0.1516,-2.3359,1.0305,-1.0382,48.15,57.39,-106.84
604741,-0.8130,-0.5002,-0.1458,-2.9389,2.1298,-1.4504,47.97,57.34,-106.24
605241,-0.7971,-0.4885,-0.1719,-2.5420,0.1908,-0.6641,48.01,56.99,-109.38
605741,-0.8274,-0.5115,-0.1387,-2.6794,0.9008,-1.1832,48.11,57.36,-105.17
606241,-0.8140,-0.4995,-0.1511,-2.2748,1.0382,-1.1756,48.01,57.33,-106.83
606741,-0.8206,-0.5085,-0.1531,-2.2519,0.7252,-0.9618,48.11,57.09,-106.75
607241,-0.8167,-0.4985,-0.1528,-2.4122,0.6718,-1.1679,47.97,57.44,-107.04
607741,-0.8491,-0.5181,-0.1462,-2.6260,0.9084,-1.0687,47.97,57.63,-105.76
608241,-0.8066,-0.5093,-0.1528,-2.7328,1.7481,-1.2443,47.97,56.61,-106.70
608741,-0.8154,-0.5076,-0.1558,-2.0534,1.0076,-1.2977,47.97,56.93,-107.06
609241,-0.8188,-0.5432,-0.1770,-3.4122,2.9542,-0.0534,48.15,55.10,-108.05
609741,-0.8223,-0.5134,-0.1562,-2.1832,0.2595,-0.7328,47.97,56.87,-106.93
610241,-0.8274,-0.5112,-0.1477,-2.5725,0.9313,-1.2290,47.97,57.25,-106.12
610741,-0.8213,-0.5112,-0.1565,-2.4275,0.8626,-0.9618,48.20,56.94,-107.02
611241,-0.7991,-0.5000,-0.1528,-3.0916,1.3817,-1.1450,48.15,56.80,-107.00
611741,-0.8132,-0.4990,-0.1501,-2.4809,1.5344,-1.1832,48.15,57.35,-106.75
612241,-0.8496,-0.5247,-0.1602,-2.4733,0.8092,-0.8855,47.64,57.15,-106.98
612741,-0.8103,-0.5122,-0.1382,-2.4275,3.1145,-2.0687,48.20,56.79,-105.10
613241,-0.8513,-0.5303,-0.1221,-2.0305,0.8397,-2.0687,47.97,57.41,-102.96
613741,-0.8682,-0.5076,-0.1575,-4.6336,-2.2901,1.8015,48.01,58.53,-107.24
614241,-0.8352,-0.5066,-0.1355,-2.2137,-1.0687,-0.9695,48.29,57.88,-104.97
614741,-0.8340,-0.5115,-0.1189,-3.1985,0.2137,-1.9084,47.97,57.80,-103.09
615241,-0.8103,-0.4795,-0.1646,-1.4504,1.3511,-1.4275,48.11,57.97,-108.94
615741,-0.8120,-0.4939,-0.1375,-2.8244,1.1603,-0.9771,47.97,57.73,-105.55
616241,-0.8271,-0.5190,-0.1384,-2.7481,1.9008,-0.9008,48.15,57.00,-104.93
616741,-0.8308,-0.5427,-0.1272,-2.6107,1.5573,-2.0229,48.11,56.14,-103.19
617241,-0.8379,-0.5020,-0.1733,-1.9313,0.1832,-0.6870,48.11,57.63,-109.05
617741,-0.8171,-0.5171,-0.1567,-2.7176,0.8015,-0.6870,47.97,56.53,-106.86
618241,-0.7966,-0.5061,-0.1536,-2.8321,1.6489,-1.2366,47.78,56.42,-106.88
618741,-0.8025,-0.5217,-0.1677,-2.3740,-0.1374,-0.4580,48.11,55.67,-107.82
619241,-0.8022,-0.4778,-0.1187,-2.5573,0.4504,-0.6794,48.01,58.46,-103.95
619741,-0.8159,-0.5154,-0.1343,-1.4962,0.2519,-1.4809,48.11,56.87,-104.60
620241,-0.8416,-0.4993,-0.1570,-1.6947,0.3206,-1.1374,48.11,58.12,-107.45
620741,-0.8264,-0.5132,-0.1509,-2.5725,0.8092,-1.1756,48.11,57.09,-106.38
621241,-0.8213,-0.5020,-0.1531,-2.9160,1.0153,-0.8015,48.20,57.42,-106.96
621741,-0.8220,-0.5129,-0.1399,-2.5573,1.0305,-1.0458,47.92,57.11,-105.26
622241,-0.8213,-0.5046,-0.1533,-2.6031,1.0000,-1.1985,48.11,57.29,-106.90
622741,-0.8074,-0.5081,-0.1509,-2.5954,1.0534,-0.9924,48.11,56.72,-106.54
623241,-0.8145,-0.5044,-0.1548,-2.4962,1.0916,-1.0534,48.01,57.06,-107.06
623741,-0.8186,-0.5066,-0.1521,-2.5038,0.6870,-1.0382,48.01,57.13,-106.71
624241,-0.8140,-0.5100,-0.1572,-2.1908,0.9771,-1.2748,48.01,56.75,-107.13
624741,-0.8215,-0.5000,-0.1416,-2.6260,1.0611,-1.0687,48.20,57.68,-105.81
625241,-0.8225,-0.5105,-0.1431,-2.6183,1.4351,-1.1374,48.11,57.20,-105.66
625741,-0.8157,-0.5120,-0.1611,-2.3359,1.1985,-1.0534,47.82,56.65,-107.47
626241,-0.8140,-0.5022,-0.1504,-2.6489,0.9237,-1.0229,47.97,57.22,-106.67
626741,-0.8311,-0.5149,-0.1467,-2.9847,0.7405,-1.0382,48.20,57.21,-105.91
627241,-0.8228,-0.5173,-0.1399,-2.2290,1.1832,-0.9847,48.01,56.92,-105.13
627741,-0.8267,-0.4861,-0.1482,-1.7939,0.4656,-1.3740,48.20,58.42,-106.95
628241,-0.8225,-0.5054,-0.1492,-2.4198,0.7786,-1.2748,48.11,57.36,-106.44
628741,-0.8066,-0.5117,-0.1523,-1.8626,0.4504,-0.8397,47.97,56.50,-106.58
629241,-0.8215,-0.4998,-0.1567,-2.3969,1.0840,-1.3664,48.29,57.48,-107.41
629741,-0.8210,-0.5103,-0.1450,-2.4122,1.0382,-1.2824,48.34,57.13,-105.87
630241,-0.8269,-0.5042,-0.1423,-2.8015,1.6412,-1.3969,47.97,57.65,-105.77
630741,-0.8079,-0.5024,-0.1509,-2.1374,1.4656,-1.1069,48.01,57.00,-106.71
631241,-0.8169,-0.5054,-0.1570,-2.2214,0.7328,-1.0611,48.11,57.06,-107.26
631741,-0.8311,-0.5098,-0.1462,-2.2595,0.4580,-1.3206,48.20,57.46,-106.01
632241,-0.8357,-0.5371,-0.1562,-2.1908,0.9160,-0.9542,48.15,56.20,-106.22
632741,-0.8318,-0.5078,-0.1484,-2.5649,0.6565,-0.9771,48.11,57.54,-106.29
633241,-0.8274,-0.5073,-0.1487,-2.4580,0.8015,-0.9771,48.11,57.42,-106.33
633741,-0.8086,-0.5066,-0.1541,-2.1527,0.6565,-1.0458,48.11,56.78,-106.91
634241,-0.8254,-0.5056,-0.1467,-2.6489,1.0229,-1.1298,48.11,57.47,-106.18
634741,-0.8276,-0.5110,-0.1482,-2.6641,0.7710,-1.1374,48.11,57.27,-106.17
635241,-0.8267,-0.5142,-0.1555,-2.5115,0.3206,-0.7405,48.01,56.98,-106.83
635741,-0.8254,-0.5098,-0.1475,-2.5878,1.0000,-1.1145,48.20,57.26,-106.13
636241,-0.8210,-0.5076,-0.1484,-2.6718,1.1450,-1.1908,48.11,57.21,-106.30
636741,-0.8201,-0.5063,-0.1602,-2.3588,1.1985,-1.1374,48.11,57.07,-107.55
637241,-0.8254,-0.5115,-0.1567,-2.4656,1.0916,-1.1069,48.20,57.05,-107.04
637741,-0.8203,-0.4978,-0.1472,-2.3817,1.1298,-1.0382,48.11,57.67,-106.47
638241,-0.8245,-0.5076,-0.1511,-2.9924,1.1221,-0.8702,47.97,57.29,-106.58
638741,-0.8333,-0.5183,-0.1384,-2.9618,1.7710,-1.2443,48.11,57.23,-104.95
639241,-0.8301,-0.5149,-0.1528,-2.1832,1.2290,-0.9160,48.01,57.10,-106.53
639741,-0.8381,-0.3491,-0.0039,-5.0534,-5.3053,-2.9313,48.20,67.38,-90.64
640241,-0.8296,-0.5024,-0.1853,-0.7252,7.2824,-1.1908,48.20,57.16,-110.24
640741,-0.8494,-0.4956,-0.1909,-0.9466,1.2061,-0.4275,48.15,57.98,-111.07
641241,-0.8342,-0.5232,-0.1467,-2.9237,1.1908,-1.1069,47.97,56.92,-105.67
641741,-0.8179,-0.5071,-0.1545,-1.8931,0.9847,-1.0458,48.29,57.05,-106.95
642241,-0.8062,-0.5007,-0.1562,-2.4885,1.0229,-0.9084,47.92,56.95,-107.33
642741,-0.8235,-0.5134,-0.1301,-2.6412,0.7328,-1.2290,48.20,57.25,-104.22
643241,-0.8164,-0.5093,-0.1487,-2.4275,1.1679,-1.2366,47.78,56.98,-106.27
643741,-0.8174,-0.5046,-0.1519,-2.4198,0.9542,-1.1908,47.92,57.19,-106.75
644241,-0.8372,-0.5139,-0.1492,-1.4656,0.4046,-0.9618,48.11,57.41,-106.19
644741,-0.8154,-0.5034,-0.1543,-2.7786,1.9542,-1.4198,47.97,57.15,-107.04
645241,-0.8147,-0.5071,-0.1550,-2.0992,1.1221,-1.0153,48.29,56.94,-107.00
645741,-0.8088,-0.5039,-0.1389,-2.6336,1.2443,-0.9618,47.92,57.13,-105.41
646241,-0.8115,-0.4993,-0.1606,-2.7405,1.4046,-1.1908,48.11,57.13,-107.84
646741,-0.7942,-0.5039,-0.1587,-2.2595,0.8168,-0.7252,47.82,56.37,-107.48
647241,-0.8293,-0.5132,-0.1516,-2.1756,0.2901,-1.0687,47.97,57.17,-106.46
647741,-0.8352,-0.5132,-0.1328,-2.6870,1.0534,-1.2901,48.11,57.60,-104.51
648241,-0.8157,-0.5054,-0.1609,-2.3130,0.5115,-0.8779,48.01,56.97,-107.66
648741,-0.8196,-0.5110,-0.1506,-2.6107,0.9389,-1.2366,48.29,56.98,-106.43
649241,-0.8091,-0.5085,-0.1472,-2.4656,1.5573,-1.2061,47.97,56.80,-106.14
649741,-0.8030,-0.4961,-0.1541,-1.7863,0.9542,-1.0305,47.78,57.10,-107.25
650241,-0.8259,-0.5186,-0.1526,-2.4580,1.4580,-1.1908,47.92,56.80,-106.40
650741,-0.8262,-0.5095,-0.1477,-2.6183,1.3130,-1.3817,47.97,57.29,-106.17
651241,-0.7893,-0.4839,-0.1521,-3.7023,1.5802,-0.2824,48.20,57.27,-107.45
651741,-0.8220,-0.5117,-0.1562,-2.4046,1.4427,-0.8855,47.97,56.94,-106.98
652241,-0.8528,-0.4692,-0.1450,-2.3130,-1.2443,-1.1145,48.11,60.06,-107.17
652741,-0.8052,-0.5056,-0.1587,-2.3435,1.8855,-1.1374,48.11,56.65,-107.42
653241,-0.7925,-0.5034,-0.1689,-2.7252,1.7939,-0.6947,48.01,56.18,-108.55
653741,-0.8093,-0.5076,-0.1477,-2.4962,0.1450,-0.7710,48.01,56.85,-106.23
654241,-0.8428,-0.5056,-0.1450,-2.0382,0.2901,-0.9695,48.11,58.03,-106.00
654741,-0.8167,-0.5144,-0.1672,-2.5344,0.9313,-1.0153,47.97,56.48,-108.01
655241,-0.8318,-0.5063,-0.1509,-2.8092,1.0076,-0.8321,48.20,57.58,-106.59
655741,-0.8135,-0.5017,-0.1479,-2.4427,1.1985,-1.2748,48.11,57.26,-106.43
656241,-0.8279,-0.5039,-0.1506,-2.6183,1.1145,-1.1756,48.01,57.57,-106.64
656741,-0.8433,-0.5151,-0.1484,-3.2977,1.8015,-1.1756,47.92,57.55,-106.07
657241,-0.8125,-0.5022,-0.1340,-2.4122,0.5954,-1.1603,48.11,57.39,-104.94
657741,-0.7947,-0.4944,-0.1548,-2.5802,1.4809,-1.0229,47.97,56.90,-107.38
658241,-0.8015,-0.5078,-0.1804,-1.9847,1.4504,-0.3969,48.34,56.08,-109.56
658741,-0.8286,-0.5125,-0.1492,-2.3969,0.9084,-1.0916,47.97,57.21,-106.23
659241,-0.8252,-0.5024,-0.1584,-2.3206,0.8168,-0.8473,48.15,57.44,-107.50
659741,-0.8313,-0.5066,-0.1445,-2.4656,1.1069,-1.0229,48.11,57.64,-105.92
660241,-0.8154,-0.5239,-0.1523,-3.3664,0.9008,-0.7099,48.11,56.21,-106.21
660741,-0.8169,-0.5085,-0.1384,-2.8321,1.9237,-1.5344,47.78,57.17,-105.23
661241,-0.8262,-0.5222,-0.1211,-2.9771,0.3969,-1.6489,48.01,57.02,-103.06
661741,-0.8337,-0.5232,-0.1638,-2.4122,0.4122,-0.9542,47.97,56.67,-107.39
662241,-0.7888,-0.4995,-0.1667,-3.0153,1.9008,-1.2595,48.01,56.27,-108.46
662741,-0.8271,-0.4976,-0.1616,-1.7405,-0.1679,-0.9313,48.01,57.69,-108.00
663241,-0.8308,-0.5161,-0.1555,-2.4580,0.1603,-0.9389,48.15,57.02,-106.77
663741,-0.7900,-0.5188,-0.1643,-2.6870,2.7786,-0.2977,48.11,55.44,-107.57
664241,-0.8047,-0.5000,-0.1553,-4.4198,3.3359,0.1985,48.11,56.95,-107.25
664741,-0.7820,-0.4893,-0.1516,-3.2290,1.1069,-0.4427,48.29,56.77,-107.22
665241,-0.8306,-0.5056,-0.1687,-2.2595,0.5954,-1.0687,48.11,57.31,-108.45
665741,-0.7698,-0.4753,-0.1516,-2.0992,2.1603,-0.7481,48.29,57.05,-107.69
666241,-0.7996,-0.4727,-0.1558,-2.6412,1.4885,-0.2366,48.11,58.10,-108.24
666741,-0.8096,-0.4983,-0.1511,-2.7634,1.6641,-1.0763,47.78,57.25,-106.87
667241,-0.7930,-0.4814,-0.1604,-2.0916,1.5115,-1.0687,47.82,57.38,-108.43
667741,-0.8245,-0.5183,-0.1492,-2.1298,-1.1221,-0.5038,48.11,56.81,-106.06
668241,-0.8518,-0.5166,-0.1406,-2.2443,-0.3435,-1.0840,48.11,57.85,-105.23
668741,-0.8669,-0.5210,-0.1372,-1.7405,-0.9466,-1.8931,48.29,58.14,-104.75
669241,-0.8418,-0.5171,-0.1370,-2.7252,0.1221,-0.9695,48.29,57.57,-104.84
669741,-0.8208,-0.5217,-0.1401,-3.0000,1.2595,-1.6565,48.11,56.65,-105.03
670241,-0.8076,-0.4805,-0.1648,-2.3359,0.4885,-1.2061,48.11,57.83,-108.93
670741,-0.8369,-0.5266,-0.1387,-1.7099,1.1221,-1.1679,48.11,56.95,-104.75
671241,-0.8291,-0.5068,-0.1592,-3.2977,-0.8626,-0.4427,47.92,57.35,-107.44
671741,-0.8450,-0.5034,-0.1401,-2.3511,0.1069,-1.2672,48.11,58.27,-105.56
672241,-0.8716,-0.5154,-0.1489,-1.0611,-1.2366,-0.8702,47.97,58.39,-106.12
672741,-0.8184,-0.5059,-0.1238,-2.4733,2.2214,-1.9008,48.11,57.53,-103.75
673241,-0.8088,-0.5232,-0.1467,-3.9847,2.8550,-0.6641,47.97,56.11,-105.67
673741,-0.8362,-0.5081,-0.1584,-1.1069,0.0000,-1.3053,48.20,57.53,-107.32
674241,-0.8091,-0.5059,-0.1433,-2.6870,0.7023,-0.6107,48.11,56.98,-105.82
674741,-0.8142,-0.5029,-0.1565,-2.5802,1.4962,-1.1756,48.29,57.10,-107.28
675241,-0.7866,-0.5110,-0.1453,-1.9084,2.5267,-0.6412,48.11,55.97,-105.87
675741,-0.8276,-0.4919,-0.1423,-1.1985,-0.7481,-1.2824,47.97,58.25,-106.14
676241,-0.8101,-0.4797,-0.1594,-2.8168,0.7481,-1.0153,48.15,58.03,-108.38
676741,-0.8423,-0.5161,-0.1272,-2.9847,0.5420,-1.2290,47.92,57.74,-103.84
677241,-0.8113,-0.5027,-0.1636,-2.0916,0.9924,-0.9924,48.01,56.91,-108.02
677741,-0.8748,-0.4995,-0.1353,-2.2672,0.5573,-1.5878,48.20,59.39,-105.15
678241,-0.8079,-0.5129,-0.1560,-3.0916,1.6947,-1.1527,48.29,56.43,-106.92
678741,-0.8022,-0.5046,-0.1584,-3.1603,2.0076,-0.8397,48.11,56.60,-107.43
679241,-0.8174,-0.5078,-0.1567,-2.1298,1.0305,-1.1985,48.01,56.97,-107.15
679741,-0.8147,-0.5151,-0.1511,-2.1450,1.0992,-0.7710,48.11,56.62,-106.35
680241,-0.7791,-0.4973,-0.1746,-2.9237,2.5802,-0.0153,48.01,55.92,-109.34
680741,-0.8169,-0.5088,-0.1492,-2.3740,1.4427,-1.1450,48.20,57.01,-106.34
681241,-0.8218,-0.5095,-0.1489,-2.3893,0.9389,-0.7252,48.15,57.14,-106.29
681741,-0.8083,-0.5210,-0.1389,-2.1450,0.8931,-1.0687,47.97,56.30,-104.93
682241,-0.8064,-0.5061,-0.1565,-2.9466,1.5267,-1.2366,48.20,56.70,-107.18
682741,-0.8196,-0.5090,-0.1541,-2.5191,0.9618,-1.0382,47.82,57.02,-106.84
683241,-0.8081,-0.5049,-0.1531,-2.4885,1.2366,-1.1221,48.15,56.86,-106.87
683741,-0.8159,-0.5010,-0.1687,-3.1374,0.6107,-0.4351,47.97,57.06,-108.61
684241,-0.7776,-0.4854,-0.1519,-3.0382,1.2214,0.1985,48.01,56.81,-107.37
684741,-0.8145,-0.5010,-0.1465,-3.5038,1.6183,-0.9924,48.15,57.35,-106.30
685241,-0.8208,-0.5027,-0.1489,-2.6794,0.8626,-0.8626,48.11,57.43,-106.50
685741,-0.8193,-0.5061,-0.1594,-2.7939,1.3359,-0.7786,48.01,57.07,-107.48
686241,-0.8315,-0.5105,-0.1414,-2.5038,1.1145,-1.2672,48.11,57.50,-105.48
686741,-0.8140,-0.5073,-0.1565,-2.4656,0.9237,-0.7023,47.97,56.89,-107.14
687241,-0.8218,-0.5051,-0.1479,-2.5038,0.7176,-0.7023,48.15,57.36,-106.33
687741,-0.8230,-0.5039,-0.1443,-2.4809,1.0153,-0.7786,48.29,57.51,-105.98
688241,-0.8220,-0.5088,-0.1438,-2.5649,0.9771,-0.9237,47.92,57.25,-105.78
688741,-0.8147,-0.5022,-0.1543,-2.3435,0.5267,-0.8626,47.97,57.18,-107.08
689241,-0.8037,-0.5027,-0.1458,-2.8168,1.3206,-0.6718,48.11,56.93,-106.17
689741,-0.8872,-0.4856,-0.1582,-0.9389,-1.6794,-1.6412,48.01,60.07,-108.05
690241,-0.8398,-0.5171,-0.1401,-2.5802,1.3053,-0.9160,48.11,57.47,-105.16
690741,-0.8098,-0.5032,-0.1548,-2.2443,0.6260,-0.9008,47.97,56.97,-107.10
691241,-0.8174,-0.4968,-0.1526,-2.5191,0.9542,-1.0305,47.97,57.55,-107.07
691741,-0.8191,-0.5059,-0.1477,-2.4504,0.3511,-0.8702,48.11,57.24,-106.28
692241,-0.8250,-0.5090,-0.1606,-2.3511,1.1450,-1.3359,48.29,57.10,-107.52
692741,-0.8103,-0.5103,-0.1501,-1.4656,-0.6183,0.5115,48.01,56.72,-106.40
693241,-0.8157,-0.5156,-0.1492,-2.2519,0.8473,-1.3588,48.15,56.65,-106.14
693741,-0.8206,-0.5005,-0.1577,-2.2901,0.3969,-0.6947,48.11,57.40,-107.49
694241,-0.8054,-0.5103,-0.1511,-1.9160,1.8015,-1.6107,47.97,56.55,-106.50
694741,-0.8218,-0.4963,-0.1431,-2.3740,0.5802,-0.7405,48.29,57.85,-106.08
695241,-0.8413,-0.5310,-0.1265,-3.0916,1.5115,-1.6794,47.97,57.02,-103.40
695741,-0.8091,-0.5122,-0.1521,-2.2214,1.9542,-1.3206,47.97,56.56,-106.54
696241,-0.8086,-0.4976,-0.1499,-2.9847,1.2366,-1.3130,47.92,57.27,-106.77
696741,-0.7964,-0.5000,-0.1575,-2.1221,0.4580,-0.6870,47.97,56.65,-107.48
697241,-0.8142,-0.4939,-0.1318,-2.5725,1.3893,-1.2595,48.20,57.88,-104.95
697741,-0.8135,-0.4919,-0.1648,-2.1145,0.0534,-0.7939,48.29,57.47,-108.52
698241,-0.8232,-0.4995,-0.1409,-2.7481,0.8702,-0.9847,47.97,57.77,-105.75
698741,-0.8181,-0.5103,-0.1562,-2.1679,0.8855,-1.0229,48.20,56.88,-107.03
699241,-0.8047,-0.4956,-0.1350,-3.3206,1.0000,-1.3359,48.01,57.45,-105.24
699741,-0.8225,-0.5095,-0.1624,-2.4885,1.0229,-0.8931,47.97,56.97,-107.67
700241,-0.8325,-0.5061,-0.1514,-2.3664,0.8473,-1.2748,48.15,57.60,-106.65
700741,-0.8362,-0.5056,-0.1531,-1.7710,0.0763,-0.8550,48.11,57.72,-106.84
701241,-0.8140,-0.5103,-0.1448,-2.6183,1.3282,-1.1069,48.11,56.91,-105.84
701741,-0.8215,-0.5063,-0.1484,-2.5878,0.8931,-0.9389,47.97,57.29,-106.34
702241,-0.8245,-0.5098,-0.1475,-2.4962,0.7786,-0.8092,48.15,57.23,-106.13
702741,-0.8425,-0.5046,-0.1577,-2.4427,1.2748,-0.8931,47.82,57.89,-107.36
703241,-0.8125,-0.5044,-0.1494,-2.0840,0.9924,-1.0458,48.15,57.08,-106.50
703741,-0.8462,-0.5298,-0.1460,-1.7023,1.0916,-1.6107,48.01,57.00,-105.41
704241,-0.8318,-0.5071,-0.1392,-2.7405,1.0305,-0.8092,48.01,57.70,-105.35
704741,-0.8245,-0.5051,-0.1489,-2.5191,1.2595,-1.1298,48.01,57.43,-106.43
705241,-0.8262,-0.5007,-0.1453,-2.5420,1.4275,-1.3511,47.97,57.74,-106.18
705741,-0.8169,-0.4985,-0.1409,-1.9847,0.8779,-1.1985,48.15,57.62,-105.78
706241,-0.8262,-0.5088,-0.1467,-2.3435,0.2901,-1.1069,47.97,57.34,-106.09
706741,-0.8132,-0.4932,-0.1558,-2.5496,0.6031,-0.8321,48.15,57.55,-107.53
707241,-0.8308,-0.5054,-0.1367,-2.6489,0.9771,-0.8473,47.97,57.78,-105.14
707741,-0.8049,-0.4905,-0.1548,-2.2672,0.5649,-0.7328,48.29,57.42,-107.51
708241,-0.8225,-0.4995,-0.1450,-2.3740,1.0229,-1.1069,47.97,57.69,-106.19
708741,-0.8113,-0.5083,-0.1624,-2.6947,1.3664,-1.1145,48.11,56.67,-107.71
709241,-0.7852,-0.4949,-0.1619,-2.3206,0.5191,-0.6183,48.11,56.45,-108.11
709741,-0.8152,-0.5002,-0.1521,-2.0458,0.7786,-1.0992,47.92,57.32,-106.91
710241,-0.8364,-0.5037,-0.1436,-2.5344,0.6107,-0.8092,48.11,57.95,-105.91
710741,-0.8191,-0.4993,-0.1465,-2.3435,1.2748,-1.3893,47.97,57.57,-106.35
711241,-0.8274,-0.5071,-0.1479,-2.4046,1.1527,-1.0458,48.11,57.45,-106.27
711741,-0.8210,-0.4993,-0.1511,-2.3817,0.5573,-0.7481,48.29,57.57,-106.84
712241,-0.8196,-0.5073,-0.1433,-2.0382,0.7481,-0.9618,48.15,57.25,-105.77
712741,-0.8315,-0.5027,-0.1431,-2.6870,1.1450,-1.2290,48.11,57.85,-105.89
713241,-0.8223,-0.5005,-0.1416,-2.5038,0.9847,-0.9237,48.29,57.68,-105.80
713741,-0.8271,-0.4956,-0.1489,-2.1298,0.4275,-1.2214,48.11,57.97,-106.73
714241,-0.8135,-0.5022,-0.1528,-2.6107,1.8321,-1.2672,48.11,57.17,-106.93
714741,-0.8196,-0.4978,-0.1597,-2.4046,0.3435,-0.8015,48.11,57.47,-107.78
715241,-0.8342,-0.5105,-0.1326,-2.3206,-0.0534,-0.8473,48.15,57.70,-104.56
715741,-0.8091,-0.5100,-0.1597,-3.0153,1.8015,-0.6641,48.11,56.55,-107.38
716241,-0.8433,-0.5205,-0.1313,-2.0000,-1.0153,-1.6947,48.11,57.52,-104.16
716741,-0.8225,-0.5139,-0.1609,-2.0840,-0.1679,-0.6412,47.97,56.79,-107.38
717241,-0.8301,-0.5134,-0.1565,-2.7176,0.7557,-1.0153,48.01,57.11,-106.95
717741,-0.8162,-0.4966,-0.1387,-2.8626,0.8092,-0.8550,48.01,57.72,-105.60
718241,-0.8135,-0.4973,-0.1526,-2.2977,0.8931,-0.7786,48.20,57.40,-107.06
718741,-0.8154,-0.5046,-0.1541,-2.0076,0.6336,-0.7557,48.11,57.09,-106.98
719241,-0.8384,-0.5181,-0.1372,-2.0763,0.3130,-1.2061,48.01,57.41,-104.83
719741,-0.8162,-0.5037,-0.1614,-2.5954,1.3511,-1.0992,48.01,57.06,-107.77
720241,-0.8181,-0.5107,-0.1506,-2.3893,0.9084,-0.7176,48.11,56.94,-106.43
720741,-0.8123,-0.5049,-0.1646,-2.3206,0.9313,-0.8931,47.82,56.82,-108.05
721241,-0.8232,-0.5088,-0.1536,-2.3206,0.2748,-0.8702,47.78,57.16,-106.80
721741,-0.8242,-0.5134,-0.1523,-2.7710,0.9847,-1.0382,47.82,56.99,-106.53
722241,-0.8198,-0.5039,-0.1426,-1.9389,1.1832,-1.2519,47.97,57.43,-105.80
722741,-0.8115,-0.5071,-0.1501,-2.3053,0.3435,-0.9771,48.01,56.91,-106.49
723241,-0.8118,-0.5059,-0.1594,-2.0229,0.4809,-0.5649,48.20,56.84,-107.49
723741,-0.8181,-0.5022,-0.1501,-2.3588,0.6870,-0.7634,48.20,57.35,-106.65
724241,-0.8289,-0.5142,-0.1433,-2.7939,1.1374,-0.9924,47.92,57.22,-105.57
724741,-0.8269,-0.4954,-0.1609,-3.1527,1.3359,-1.1298,48.15,57.79,-107.99
725241,-0.8093,-0.5010,-0.1614,-2.4885,1.0611,-0.4580,48.11,56.96,-107.86
725741,-0.8140,-0.5154,-0.1492,-2.0382,1.4046,-1.4427,48.15,56.61,-106.14
726241,-0.8193,-0.5012,-0.1460,-2.5725,1.0229,-0.8626,48.29,57.50,-106.24
726741,-0.8164,-0.5176,-0.1479,-2.5420,0.8931,-1.0458,48.15,56.60,-105.95
727241,-0.8105,-0.4954,-0.1611,-2.1832,1.5267,-1.0229,48.20,57.27,-108.02
727741,-0.8284,-0.5447,-0.1460,-2.8931,2.9084,-0.8702,48.01,55.76,-105.00
728241,-0.8076,-0.5237,-0.1755,-2.1756,2.2824,-0.3511,48.11,55.63,-108.53
728741,-0.8081,-0.4858,-0.1482,-1.9389,-0.0687,-0.8931,48.20,57.85,-106.96
729241,-0.8264,-0.4961,-0.1731,-1.9008,1.2443,-0.8321,48.20,57.55,-109.23
729741,-0.8198,-0.5112,-0.1592,-1.9771,0.3206,-0.5649,47.97,56.85,-107.29
730241,-0.7966,-0.4924,-0.1641,-0.8092,1.7023,-1.7328,48.11,56.91,-108.43
730741,-0.7988,-0.4988,-0.1655,-2.5420,0.3282,-0.1527,47.92,56.66,-108.36
731241,-0.8613,-0.5286,-0.1304,-2.1374,-0.1908,-2.1145,48.11,57.70,-103.86
731741,-0.8215,-0.5032,-0.1619,-2.2443,0.6260,-0.6718,47.82,57.24,-107.83
732241,-0.8140,-0.5081,-0.1511,-1.9389,0.8092,-0.9771,48.11,56.93,-106.57
732741,-0.8198,-0.5154,-0.1584,-2.4122,1.4580,-1.0458,48.11,56.67,-107.09
733241,-0.8354,-0.5151,-0.1514,-2.3359,1.0229,-1.2137,48.15,57.27,-106.37
733741,-0.8062,-0.5081,-0.1572,-2.4885,0.6870,-1.0305,47.97,56.59,-107.20
734241,-0.8152,-0.4910,-0.1714,-2.4351,0.6489,-0.8702,47.97,57.47,-109.24
734741,-0.8335,-0.5159,-0.1394,-2.4122,1.1450,-1.0229,48.11,57.34,-105.12
735241,-0.8176,-0.5002,-0.1570,-2.6412,1.2061,-0.8092,48.29,57.33,-107.42
735741,-0.8499,-0.5420,-0.1790,-2.0840,-0.5115,0.1450,47.97,56.11,-108.27
736241,-0.8691,-0.5374,-0.1343,-2.0687,-0.3130,-2.0305,47.97,57.49,-104.03
736741,-0.7935,-0.5217,-0.1665,-2.7786,1.0534,-0.3130,48.20,55.39,-107.70
737241,-0.8369,-0.4885,-0.1504,-3.3817,-0.2901,-0.2519,48.11,58.59,-107.11
737741,-0.8162,-0.5059,-0.1650,-2.9008,1.4198,-0.9924,48.11,56.90,-108.07
738241,-0.8052,-0.5051,-0.1555,-2.9313,1.9847,-0.9847,48.11,56.72,-107.11
738741,-0.8213,-0.5164,-0.1511,-1.8397,0.7634,-0.9924,48.20,56.77,-106.31
739241,-0.8225,-0.4849,-0.1384,-2.7634,1.8855,-1.3511,47.92,58.49,-105.93
739741,-0.8147,-0.5164,-0.1602,-2.3817,0.7634,-1.2748,48.11,56.43,-107.23
740241,-0.8123,-0.5027,-0.1533,-2.6489,1.2137,-1.1756,48.01,57.10,-106.96
740741,-0.8252,-0.5071,-0.1543,-2.4275,0.7328,-0.8855,48.01,57.29,-106.92
741241,-0.8108,-0.4937,-0.1528,-2.2901,0.6260,-1.0382,48.01,57.49,-107.20
741741,-0.8213,-0.5120,-0.1584,-2.2443,0.8550,-1.2137,48.15,56.87,-107.20
742241,-0.8069,-0.5083,-0.1599,-2.6718,1.8702,-1.1221,47.97,56.56,-107.46
742741,-0.8262,-0.5066,-0.1614,-2.0458,0.4962,-1.2290,48.29,57.24,-107.67
743241,-0.8240,-0.5142,-0.1570,-2.4275,0.8779,-1.0763,47.97,56.88,-106.98
743741,-0.8076,-0.5054,-0.1602,-2.2977,0.8168,-0.9237,48.01,56.72,-107.58
744241,-0.8333,-0.5117,-0.1433,-1.9237,0.1679,-0.8931,48.01,57.47,-105.65
744741,-0.8191,-0.5134,-0.1536,-2.2977,1.0305,-1.2137,48.11,56.80,-106.65
745241,-0.7583,-0.5496,-0.1606,-2.1450,-0.3664,-4.1679,48.11,52.95,-106.29
745741,-0.8359,-0.5024,-0.1572,-2.0153,0.7557,-1.0153,48.15,57.80,-107.38
746241,-0.8152,-0.5042,-0.1509,-2.4885,1.0153,-1.1527,48.01,57.16,-106.66
746741,-0.8511,-0.5005,-0.1477,-1.9542,0.4427,-1.0458,47.82,58.49,-106.44
747241,-0.8115,-0.5002,-0.1621,-2.4046,0.7863,-1.0305,48.11,57.06,-107.96
747741,-0.8069,-0.4924,-0.1648,-2.4122,1.4504,-1.3511,48.11,57.24,-108.50
748241,-0.8120,-0.4968,-0.1245,-2.2443,0.2595,-1.3664,48.01,57.76,-104.07
748741,-0.8215,-0.5281,-0.1362,-3.0763,-0.0611,-0.8092,47.97,56.42,-104.47
749241,-0.8237,-0.5032,-0.1514,-2.2519,1.1450,-1.0611,48.11,57.47,-106.74
749741,-0.8164,-0.5103,-0.1499,-2.5496,1.2137,-1.2443,48.11,56.92,-106.37
750241,-0.8254,-0.5095,-0.1599,-2.3588,0.9542,-1.3588,47.78,57.10,-107.42
750741,-0.8245,-0.5137,-0.1519,-2.3969,0.7557,-0.9771,47.97,56.99,-106.47
751241,-0.8123,-0.5010,-0.1621,-2.3206,0.9160,-1.0229,48.01,57.05,-107.93
751741,-0.8230,-0.5212,-0.1475,-2.4427,0.9847,-0.8931,48.15,56.65,-105.80
752241,-0.8218,-0.5076,-0.1541,-3.0229,1.3053,-0.9695,48.11,57.16,-106.88
752741,-0.8162,-0.5100,-0.1580,-2.3740,0.7252,-1.0916,48.01,56.81,-107.21
753241,-0.8171,-0.5015,-0.1479,-2.4809,0.9771,-1.1603,48.11,57.39,-106.44
753741,-0.8394,-0.5120,-0.1504,-2.4122,1.0687,-1.3130,47.92,57.56,-106.37
754241,-0.8179,-0.5093,-0.1443,-2.7481,1.9084,-1.1603,48.11,57.09,-105.82
754741,-0.8071,-0.5076,-0.1558,-2.6031,1.2214,-1.0687,48.11,56.66,-107.06
755241,-0.8176,-0.5076,-0.1533,-2.1603,0.9542,-0.8397,48.20,57.04,-106.81
755741,-0.8115,-0.4968,-0.1453,-2.9618,1.2214,-1.0076,48.01,57.47,-106.30
756241,-0.8315,-0.5042,-0.1616,-2.6031,-0.0153,-0.7863,47.97,57.52,-107.77
756741,-0.8264,-0.5085,-0.1484,-2.9542,1.5115,-0.9771,48.20,57.34,-106.27
757241,-0.8176,-0.5061,-0.1519,-2.1374,0.4046,-0.7252,48.15,57.13,-106.70
757741,-0.7720,-0.4878,-0.1714,-1.6870,2.1832,-0.5496,47.78,56.19,-109.36
758241,-0.8208,-0.5149,-0.1172,-3.0076,0.2672,-1.2519,48.11,57.24,-102.82
758741,-0.8259,-0.4822,-0.1621,-2.5649,0.6870,-0.6718,48.29,58.37,-108.58
759241,-0.8247,-0.5149,-0.1548,-1.9695,0.3664,-0.8931,48.11,56.90,-106.73
759741,-0.8335,-0.4985,-0.1506,-2.6794,1.2061,-1.2061,48.11,58.00,-106.81
760241,-0.8159,-0.5098,-0.1519,-2.5191,1.3588,-0.9695,48.01,56.90,-106.59
760741,-0.8142,-0.5059,-0.1445,-2.8244,1.1679,-0.7634,48.15,57.13,-105.95
761241,-0.8262,-0.5081,-0.1619,-1.8855,-0.1985,-1.1145,48.15,57.16,-107.67
761741,-0.8298,-0.5083,-0.1729,-2.0153,1.8779,-1.3588,48.11,57.10,-108.78
762241,-0.8274,-0.5085,-0.1460,-2.5725,1.3282,-1.1298,48.11,57.40,-106.02
762741,-0.8276,-0.5032,-0.1401,-2.3740,1.4733,-0.9389,48.01,57.74,-105.56
763241,-0.8289,-0.5071,-0.1460,-2.1908,0.8397,-1.1679,48.01,57.52,-106.06
763741,-0.8174,-0.4900,-0.1621,-3.8244,-0.1374,-0.6031,48.11,57.73,-108.31
764241,-0.8218,-0.4998,-0.1431,-2.0534,0.9466,-0.9466,48.11,57.68,-105.97
764741,-0.8240,-0.5051,-0.1472,-2.5115,0.9618,-1.1908,48.11,57.44,-106.25
765241,-0.8179,-0.5112,-0.1475,-2.4504,1.3511,-1.2977,48.01,56.95,-106.09
765741,-0.8389,-0.5234,-0.1597,-2.2366,0.5878,-0.3817,47.82,56.88,-106.96
766241,-0.8040,-0.4951,-0.1594,-2.4198,0.2519,-0.9160,47.97,57.10,-107.85
766741,-0.8101,-0.5054,-0.1472,-2.5038,1.0305,-0.9389,48.15,56.98,-106.24
767241,-0.8223,-0.5056,-0.1487,-2.1832,0.8397,-1.0229,48.11,57.34,-106.39
767741,-0.8247,-0.5129,-0.1431,-2.2519,0.8397,-0.9008,48.29,57.15,-105.58
768241,-0.8196,-0.5112,-0.1470,-2.2748,1.3435,-1.3282,47.97,57.01,-106.04
768741,-0.8206,-0.5059,-0.1562,-2.5802,1.0458,-0.9542,48.29,57.17,-107.16
769241,-0.8159,-0.5039,-0.1489,-2.4809,0.5115,-0.7328,48.01,57.22,-106.46
769741,-0.8115,-0.5134,-0.1497,-2.6489,1.8244,-1.2977,47.64,56.62,-106.25
770241,-0.8186,-0.4995,-0.1553,-2.5267,-0.1527,-1.0305,48.15,57.42,-107.27
770741,-0.8130,-0.5042,-0.1479,-3.0153,1.1908,-0.9924,48.01,57.13,-106.35
771241,-0.8186,-0.5066,-0.1587,-2.3511,0.8779,-0.8244,48.15,57.04,-107.39
771741,-0.8201,-0.5210,-0.1584,-1.8550,0.9160,-1.3359,48.11,56.41,-106.92
772241,-0.8269,-0.5056,-0.1462,-2.8321,1.8168,-1.2977,48.20,57.52,-106.13
772741,-0.8215,-0.5156,-0.1208,-2.1298,-0.0305,-1.4809,48.20,57.19,-103.19
773241,-0.8333,-0.5071,-0.1543,-2.5344,1.0229,-1.0763,48.15,57.54,-106.92
773741,-0.8130,-0.5076,-0.1519,-2.8015,1.0916,-1.2672,47.97,56.91,-106.66
774241,-0.8257,-0.5059,-0.1504,-2.4580,1.1221,-0.9008,47.97,57.42,-106.56
774741,-0.8152,-0.5100,-0.1497,-2.1145,0.7863,-0.7557,47.97,56.89,-106.35
775241,-0.8157,-0.5076,-0.1667,-2.4580,1.1985,-1.0916,47.82,56.78,-108.19
775741,-0.8171,-0.5068,-0.1511,-2.6336,1.3053,-0.9237,47.97,57.09,-106.60
776241,-0.8171,-0.5098,-0.1619,-2.3893,0.7863,-1.0534,48.01,56.79,-107.62
776741,-0.8252,-0.5078,-0.1514,-2.3053,0.8855,-0.9695,48.11,57.29,-106.60
777241,-0.8123,-0.5103,-0.1577,-2.3053,1.0458,-0.6947,48.11,56.67,-107.18
777741,-0.8242,-0.5066,-0.1501,-2.4122,1.1679,-1.1374,47.97,57.34,-106.51
778241,-0.8208,-0.5085,-0.1575,-2.2137,0.8626,-1.1985,48.11,57.03,-107.21
778741,-0.8308,-0.5166,-0.1560,-2.5573,1.2366,-1.0763,48.15,56.99,-106.80
779241,-0.8140,-0.5042,-0.1523,-2.4351,1.0229,-0.8702,48.15,57.10,-106.81
779741,-0.8250,-0.5156,-0.1475,-2.1298,0.6489,-1.0229,47.97,56.97,-105.96
780241,-0.8362,-0.5110,-0.1355,-1.7939,0.0153,-0.9466,47.97,57.70,-104.85
780741,-0.8264,-0.5107,-0.1455,-2.5038,1.0000,-1.2595,47.97,57.27,-105.90
781241,-0.8240,-0.5085,-0.1465,-2.6870,0.9771,-1.0305,48.15,57.29,-106.07
781741,-0.8257,-0.5105,-0.1501,-2.5802,0.7328,-1.0229,47.82,57.20,-106.39
782241,-0.8262,-0.5071,-0.1509,-2.3740,1.0382,-0.8168,47.97,57.37,-106.57
782741,-0.8196,-0.5054,-0.1538,-2.4656,1.2366,-1.0687,47.97,57.20,-106.93
783241,-0.8274,-0.5125,-0.1450,-2.4275,1.2748,-1.1374,47.97,57.23,-105.80
783741,-0.8091,-0.5051,-0.1489,-2.2061,1.0382,-0.7099,47.92,56.94,-106.43
784241,-0.8318,-0.5181,-0.1482,-2.5573,1.1679,-0.8015,48.01,57.06,-105.96
784741,-0.8206,-0.5090,-0.1475,-2.7176,1.0763,-1.3511,48.11,57.14,-106.16
785241,-0.8184,-0.5071,-0.1555,-2.5573,1.3359,-0.9771,48.15,57.05,-107.05
785741,-0.8152,-0.5032,-0.1516,-2.4427,1.2901,-1.1832,47.97,57.19,-106.77
786241,-0.8164,-0.5051,-0.1575,-2.5267,0.9466,-1.2366,48.29,57.05,-107.31
786741,-0.8159,-0.5054,-0.1482,-2.5420,1.0458,-0.9771,48.15,57.16,-106.34
787241,-0.8228,-0.5076,-0.1467,-2.9237,1.2290,-1.2748,48.11,57.29,-106.12
787741,-0.8110,-0.4976,-0.1531,-2.5191,1.0000,-1.1069,47.92,57.31,-107.10
788241,-0.8303,-0.5151,-0.1431,-2.0305,0.7710,-1.0992,48.29,57.22,-105.52
788741,-0.8047,-0.5105,-0.1548,-2.8092,1.2977,-1.4198,48.11,56.46,-106.87
789241,-0.8235,-0.5112,-0.1531,-2.4198,1.1298,-1.3282,47.78,57.05,-106.67
789741,-0.8135,-0.5046,-0.1506,-2.7176,1.7786,-1.3359,48.01,57.08,-106.62
790241,-0.8120,-0.5085,-0.1509,-2.4580,1.3893,-0.8855,48.01,56.85,-106.52
790741,-0.8208,-0.5154,-0.1519,-2.4122,1.0229,-1.0153,48.11,56.79,-106.42
791241,-0.7900,-0.4988,-0.1453,-2.8626,1.4580,-1.3893,48.11,56.67,-106.24
791741,-0.8718,-0.5198,-0.1519,-3.0763,0.9542,0.6489,48.11,58.15,-106.29
792241,-0.8086,-0.5134,-0.1455,-2.1832,0.8321,-1.4427,48.01,56.58,-105.82
792741,-0.8250,-0.5142,-0.1562,-2.2977,0.4351,-1.1527,47.97,56.92,-106.90
793241,-0.8191,-0.4900,-0.1628,-2.4580,0.3740,-0.5954,48.11,57.77,-108.38
793741,-0.8132,-0.5088,-0.1479,-2.5573,0.9313,-0.8244,47.97,56.91,-106.21
